File: Code/Input/silicone_rubber_ftir.csv
3992.6,0.004646445
3988.8,0.004354428
3984.9,0.004095713
3981.1,0.003845923
3977.2,0.003642356
3973.3,0.003447401
3969.5,0.003228148
3965.6,0.003060183
3961.8,0.002845575
3957.9,0.002637876
3954.1,0.002492014
3950.2,0.002425633
3946.3,0.002275169
3942.5,0.002193608
3938.6,0.002128288
3934.8,0.002040879
3930.9,0.001932008
3927.1,0.001850576
3923.2,0.001818756
3919.3,0.001815444
3915.5,0.001810401
3911.6,0.001749063
3907.8,0.001828536
3903.9,0.00198591
3900,0.001951163
3896.2,0.001917491
3892.3,0.00203387
3888.5,0.002097032
3884.6,0.002183094
3880.8,0.00201203
3876.9,0.00186958
3873,0.001901371
3869.2,0.001937123
3865.3,0.001844386
3861.5,0.001771266
3857.6,0.00181674
3853.8,0.002251712
3849.9,0.001883884
3846,0.001877345
3842.2,0.002053844
3838.3,0.002269157
3834.5,0.002202726
3830.6,0.002193608
3826.8,0.002052512
3822.9,0.002090749
3819,0.001994764
3815.2,0.001887004
3811.3,0.001683166
3807.5,0.001790634
3803.6,0.001783503
3799.7,0.001746377
3795.9,0.001685716
3792,0.001704692
3788.2,0.001787001
3784.3,0.001927827
3780.5,0.002042411
3776.6,0.002095215
3772.7,0.002254647
3768.9,0.002247766
3765,0.002072813
3761.2,0.001987192
3757.3,0.001906464
3753.5,0.002072307
3749.6,0.002137292
3745.7,0.002120111
3741.9,0.001913915
3738,0.001858283
3734.2,0.00195221
3730.3,0.001884525
3726.5,0.002034846
3722.6,0.002087665
3718.7,0.002193608
3714.9,0.002287286
3711,0.002396748
3707.2,0.002196237
3703.3,0.002224901
3699.5,0.002208118
3695.6,0.002157935
3691.7,0.002229167
3687.9,0.002244739
3684,0.001944289
3680.2,0.002034312
3676.3,0.002281231
3672.4,0.002315878
3668.6,0.002274784
3664.7,0.002128502
3660.9,0.002192554
3657,0.002254861
3653.2,0.002339969
3649.3,0.002451917
3645.4,0.002239574
3641.6,0.002062548
3637.7,0.002023627
3633.9,0.002029967
3630,0.00212868
3626.2,0.001937685
3622.3,0.001895573
3618.4,0.002025408
3614.6,0.002067114
3610.7,0.00212405
3606.9,0.002193608
3603,0.002121536
3599.2,0.002092587
3595.3,0.002062149
3591.4,0.002004266
3587.6,0.002030494
3583.7,0.001920041
3579.9,0.001851316
3576,0.001827276
3572.2,0.001847107
3568.3,0.001962268
3564.4,0.00191118
3560.6,0.001927136
3556.7,0.001983659
3552.9,0.002126721
3549,0.002144102
3545.1,0.002102039
3541.3,0.002004629
3537.4,0.001962987
3533.6,0.001900495
3529.7,0.001843331
3525.9,0.001837109
3522,0.001852627
3518.1,0.001826296
3514.3,0.001876672
3510.4,0.001888129
3506.6,0.001944442
3502.7,0.001988624
3498.9,0.002077543
3495,0.002193608
3491.1,0.002123975
3487.3,0.002083163
3483.4,0.001971802
3479.6,0.001909688
3475.7,0.001851405
3471.9,0.001833875
3468,0.001849739
3464.1,0.001844667
3460.3,0.001885308
3456.4,0.00189964
3452.6,0.001902614
3448.7,0.001987156
3444.8,0.002069753
3441,0.002154954
3437.1,0.002144704
3433.3,0.002084484
3429.4,0.001963254
3425.6,0.001888432
3421.7,0.001930313
3417.8,0.00192382
3414,0.00188653
3410.1,0.001895381
3406.3,0.001920255
3402.4,0.001839246
3398.6,0.001911315
3394.7,0.001953136
3390.8,0.001980781
3387,0.002078145
3383.1,0.002193608
3379.3,0.002105391
3375.4,0.002026954
3371.6,0.001956569
3367.7,0.001908124
3363.8,0.001875047
3360,0.001875617
3356.1,0.0018561
3352.3,0.001861802
3348.4,0.001908085
3344.6,0.001950757
3340.7,0.001972144
3336.8,0.002014335
3333,0.00214298
3329.1,0.002174771
3325.3,0.002126874
3321.4,0.002052366
3317.5,0.002027078
3313.7,0.001928931
3309.8,0.001834377
3306,0.001858924
3302.1,0.001834466
3298.3,0.001826367
3294.4,0.001884251
3290.5,0.00186635
3286.7,0.001886049
3282.8,0.001949574
3279,0.002062043
3275.1,0.002113917
3271.3,0.002193608
3267.4,0.002137638
3263.5,0.002038515
3259.7,0.00195398
3255.8,0.001893272
3252,0.001858059
3248.1,0.001839894
3244.3,0.0018754
3240.4,0.001856235
3236.5,0.001835567
3232.7,0.001862575
3228.8,0.001924857
3225,0.001972336
3221.1,0.002085788
3217.2,0.002141185
3213.4,0.002159093
3209.5,0.002038169
3205.7,0.002003443
3201.8,0.001919439
3198,0.001867244
3194.1,0.001858493
3190.2,0.001833647
3186.4,0.001848489
3182.5,0.001789141
3178.7,0.001781114
3174.8,0.00184446
3171,0.001892695
3167.1,0.002010848
3163.2,0.002082532
3159.4,0.002193608
3155.5,0.002108764
3151.7,0.002001431
3147.8,0.001951093
3144,0.001952097
3140.1,0.001918469
3136.2,0.001901293
3132.4,0.001890163
3128.5,0.001928789
3124.7,0.001968317
3120.8,0.001915721
3117,0.001962366
3113.1,0.002076198
3109.2,0.002111364
3105.4,0.002155011
3101.5,0.002124445
3097.7,0.002011222
3093.8,0.001939105
3089.9,0.001859693
3086.1,0.001793195
3082.2,0.001785275
3078.4,0.001757148
3074.5,0.001781265
3070.7,0.001812678
3066.8,0.001868644
3062.9,0.001896869
3059.1,0.001927836
3055.2,0.002010608
3051.4,0.002116811
3047.5,0.002193608
3043.7,0.002043373
3039.8,0.001920344
3035.9,0.001806925
3032.1,0.001733094
3028.2,0.001624633
3024.4,0.001595723
3020.5,0.001609711
3016.7,0.001629053
3012.8,0.001813179
3008.9,0.002011674
3005.1,0.002193608
3001.2,0.002440369
2997.4,0.002865164
2993.5,0.003570581
2989.7,0.004766024
2985.8,0.006754403
2981.9,0.0101961
2978.1,0.016261
2974.2,0.0267494
2970.4,0.043212
2966.5,0.0631113
2962.6,0.0728322
2958.8,0.0602947
2954.9,0.0385855
2951.1,0.02288781
2947.2,0.0140214
2943.4,0.00908147
2939.5,0.006175761
2935.6,0.004426079
2931.8,0.003286281
2927.9,0.002650039
2924.1,0.002561006
2920.2,0.003006273
2916.4,0.004085607
2912.5,0.005874268
2908.6,0.007920687
2904.8,0.008754707
2900.9,0.007535026
2897.1,0.005558332
2893.2,0.004108726
2889.4,0.003173707
2885.5,0.002675155
2881.6,0.002361527
2877.8,0.002065006
2873.9,0.001749579
2870.1,0.001500474
2866.2,0.001373941
2862.3,0.001240122
2858.5,0.00119348
2854.6,0.001265498
2850.8,0.001451368
2846.9,0.001656891
2843.1,0.001834596
2839.2,0.001987716
2835.3,0.002109334
2831.5,0.002265355
2827.6,0.002402327
2823.8,0.002537027
2819.9,0.002526148
2816.1,0.002541655
2812.2,0.002631422
2808.3,0.002688034
2804.5,0.002657695
2800.6,0.002680885
2796.8,0.002746161
2792.9,0.0027424
2789.1,0.00266393
2785.2,0.00249843
2781.3,0.002314254
2777.5,0.002166384
2773.6,0.00213397
2769.8,0.002190868
2765.9,0.002135886
2762.1,0.001963601
2758.2,0.001854104
2754.3,0.001794296
2750.5,0.001761647
2746.6,0.001731828
2742.8,0.001737352
2738.9,0.001732735
2735,0.001749129
2731.2,0.00178855
2727.3,0.001807035
2723.5,0.001844847
2719.6,0.001930792
2715.8,0.002080024
2711.9,0.002193608
2708,0.002087335
2704.2,0.001977361
2700.3,0.001875353
2696.5,0.001776484
2692.6,0.001698397
2688.8,0.001722073
2684.9,0.001655214
2681,0.00165024
2677.2,0.001683251
2673.3,0.001733856
2669.5,0.001830092
2665.6,0.001928959
2661.8,0.002096093
2657.9,0.002196125
2654,0.002146098
2650.2,0.002058747
2646.3,0.001980436
2642.5,0.001894647
2638.6,0.001837308
2634.8,0.001831044
2630.9,0.001774516
2627,0.001758884
2623.2,0.001807956
2619.3,0.001809447
2615.5,0.001853557
2611.6,0.001941508
2607.7,0.002052192
2603.9,0.002120564
2600,0.002193608
2596.2,0.002211778
2592.3,0.00220326
2588.5,0.002202069
2584.6,0.002187383
2580.7,0.002248198
2576.9,0.002309625
2573,0.002401555
2569.2,0.002461808
2565.3,0.002581297
2561.5,0.002580873
2557.6,0.002687317
2553.7,0.002740106
2549.9,0.002801326
2546,0.00294259
2542.2,0.002958177
2538.3,0.002883482
2534.5,0.002665809
2530.6,0.002450046
2526.7,0.00225968
2522.9,0.002149892
2519,0.002193608
2515.2,0.002304903
2511.3,0.002381657
2507.4,0.002657969
2503.6,0.00306338
2499.7,0.003398737
2495.9,0.003425337
2492,0.003333802
2488.2,0.003205041
2484.3,0.002950095
2480.4,0.002812621
2476.6,0.002779058
2472.7,0.002690601
2468.9,0.002598748
2465,0.002510359
2461.2,0.00248274
2457.3,0.002434594
2453.4,0.002348242
2449.6,0.002332813
2445.7,0.002285226
2441.9,0.002245086
2438,0.002208243
2434.2,0.002171257
2430.3,0.002172148
2426.4,0.002099762
2422.6,0.002017694
2418.7,0.001968068
2414.9,0.002001116
2411,0.002070745
2407.2,0.002073906
2403.3,0.001963964
2399.4,0.001992826
2395.6,0.002058743
2391.7,0.002101436
2387.9,0.00218224
2384,0.002178503
2380.1,0.002193608
2376.3,0.002274494
2372.4,0.002458906
2368.6,0.002663329
2364.7,0.002892891
2360.9,0.002990996
2357,0.002869985
2353.1,0.002511604
2349.3,0.002193608
2345.4,0.002340129
2341.6,0.002552364
2337.7,0.002575123
2333.9,0.002583102
2330,0.002591202
2326.1,0.002976481
2322.3,0.00309061
2318.4,0.002577404
2314.6,0.002312106
2310.7,0.002155779
2306.9,0.002078615
2303,0.002052204
2299.1,0.002077554
2295.3,0.00222278
2291.4,0.002374042
2287.6,0.002447129
2283.7,0.002416826
2279.8,0.002360664
2276,0.002301522
2272.1,0.00228699
2268.3,0.002182692
2264.4,0.00220686
2260.6,0.002209672
2256.7,0.002225465
2252.8,0.002200623
2249,0.002204499
2245.1,0.002235309
2241.3,0.002307082
2237.4,0.002281636
2233.6,0.002357155
2229.7,0.002436928
2225.8,0.002472624
2222,0.002511169
2218.1,0.002627858
2214.3,0.00250589
2210.4,0.002436817
2206.6,0.002607038
2202.7,0.002775657
2198.8,0.002741247
2195,0.002676761
2191.1,0.002872279
2187.3,0.003053807
2183.4,0.002881703
2179.6,0.002789929
2175.7,0.003105443
2171.8,0.003594404
2168,0.004396444
2164.1,0.004321051
2160.3,0.003106191
2156.4,0.002193608
2152.5,0.003690022
2148.7,0.004450823
2144.8,0.004909319
2141,0.005192058
2137.1,0.00535752
2133.3,0.005446619
2129.4,0.006003094
2125.5,0.006554913
2121.7,0.00677843
2117.8,0.006907612
2114,0.007020705
2110.1,0.006815469
2106.3,0.006763073
2102.4,0.006803381
2098.5,0.00658691
2094.7,0.006315428
2090.8,0.006519101
2087,0.006622605
2083.1,0.006641319
2079.3,0.006638301
2075.4,0.006581019
2071.5,0.006415445
2067.7,0.006261932
2063.8,0.006222929
2060,0.006286319
2056.1,0.006118301
2052.3,0.006148013
2048.4,0.005248469
2044.5,0.004490841
2040.7,0.004134467
2036.8,0.003355963
2033,0.002585591
2029.1,0.002257733
2025.2,0.00222708
2021.4,0.002193608
2017.5,0.002231428
2013.7,0.002425241
2009.8,0.002173194
2006,0.002151335
2002.1,0.002722942
1998.2,0.003119935
1994.4,0.003477289
1990.5,0.003582241
1986.7,0.00344869
1982.8,0.003571827
1979,0.00315471
1975.1,0.002193608
1971.2,0.002574269
1967.4,0.00321511
1963.5,0.003632098
1959.7,0.003868456
1955.8,0.004245442
1952,0.004540127
1948.1,0.004833063
1944.2,0.004891811
1940.4,0.004799572
1936.5,0.004492176
1932.7,0.004169295
1928.8,0.003965024
1924.9,0.003898666
1921.1,0.00386558
1917.2,0.003702247
1913.4,0.003350294
1909.5,0.003128887
1905.7,0.003021561
1901.8,0.002920619
1897.9,0.002876182
1894.1,0.002819054
1890.2,0.00280213
1886.4,0.002703486
1882.5,0.002632196
1878.7,0.002563218
1874.8,0.002399035
1870.9,0.002424874
1867.1,0.002392897
1863.2,0.002241385
1859.4,0.002152459
1855.5,0.0020731
1851.7,0.002006865
1847.8,0.002005823
1843.9,0.002034834
1840.1,0.001866929
1836.2,0.001884804
1832.4,0.001972422
1828.5,0.002077503
1824.7,0.002099444
1820.8,0.002089221
1816.9,0.002101906
1813.1,0.00220801
1809.2,0.002179975
1805.4,0.002120535
1801.5,0.002157593
1797.6,0.002156197
1793.8,0.002242766
1789.9,0.002228798
1786.1,0.00220417
1782.2,0.002219474
1778.4,0.002202265
1774.5,0.002311911
1770.6,0.002328884
1766.8,0.002221107
1762.9,0.002233876
1759.1,0.002193608
1755.2,0.002082619
1751.4,0.002077547
1747.5,0.001902705
1743.6,0.00174744
1739.8,0.001769913
1735.9,0.001910451
1732.1,0.001912386
1728.2,0.001686396
1724.4,0.001704681
1720.5,0.001872201
1716.6,0.002111803
1712.8,0.001929268
1708.9,0.001918146
1705.1,0.002051007
1701.2,0.002306558
1697.3,0.002286328
1693.5,0.001986176
1689.6,0.001834499
1685.8,0.00206487
1681.9,0.001850948
1678.1,0.001630994
1674.2,0.001692659
1670.3,0.00172138
1666.5,0.001689581
1662.6,0.00172054
1658.8,0.001724776
1654.9,0.002197443
1651.1,0.002259307
1647.2,0.002193608
1643.3,0.002053236
1639.5,0.002024018
1635.6,0.002233937
1631.8,0.002076785
1627.9,0.00215308
1624.1,0.002269248
1620.2,0.002336694
1616.3,0.002600796
1612.5,0.002464318
1608.6,0.002432829
1604.8,0.002398541
1600.9,0.002372187
1597.1,0.002298903
1593.2,0.002235877
1589.3,0.002136875
1585.5,0.002074006
1581.6,0.002007515
1577.8,0.002089461
1573.9,0.001813003
1570,0.00138369
1566.2,0.001355363
1562.3,0.001594036
1558.5,0.001957776
1554.6,0.001600943
1550.8,0.001543775
1546.9,0.001734099
1543,0.00215141
1539.2,0.002428998
1535.3,0.002193608
1531.5,0.002014386
1527.6,0.00191017
1523.8,0.00189529
1519.9,0.001804649
1516,0.001560388
1512.2,0.001460108
1508.3,0.00166948
1504.5,0.001526446
1500.6,0.001287676
1496.8,0.001459762
1492.9,0.001542051
1489,0.001861357
1485.2,0.002045217
1481.3,0.002162118
1477.5,0.002152233
1473.6,0.002074791
1469.8,0.001746929
1465.9,0.001743793
1462,0.002048963
1458.2,0.002979732
1454.3,0.004005038
1450.5,0.005396293
1446.6,0.00650053
1442.7,0.006213479
1438.9,0.005298778
1435,0.004666913
1431.2,0.004721901
1427.3,0.005872158
1423.5,0.008455481
1419.6,0.01278812
1415.7,0.01710674
1411.9,0.01852404
1408,0.01701209
1404.2,0.01539888
1400.3,0.01448236
1396.5,0.01209676
1392.6,0.008410198
1388.7,0.005712329
1384.9,0.004163161
1381,0.003372012
1377.2,0.002999741
1373.3,0.002843935
1369.5,0.002767207
1365.6,0.002629688
1361.7,0.002425982
1357.9,0.002232433
1354,0.002083122
1350.2,0.001964828
1346.3,0.001845678
1342.4,0.001617821
1338.6,0.001411027
1334.7,0.0012607
1330.9,0.001174825
1327,0.00119743
1323.2,0.001337973
1319.3,0.001603535
1315.4,0.001992881
1311.6,0.002429764
1307.7,0.002193608
1303.9,0.001997211
1300,0.002034951
1296.2,0.002292398
1292.3,0.002822015
1288.4,0.003835769
1284.6,0.005632196
1280.7,0.008805254
1276.9,0.01491585
1273,0.02851598
1269.2,0.06362788
1265.3,0.1446814
1261.4,0.2653396
1257.6,0.3239192
1253.7,0.2374725
1249.9,0.1301059
1246,0.07588501
1242.2,0.05439143
1238.3,0.04676861
1234.4,0.0443944
1230.6,0.04420537
1226.7,0.04512507
1222.9,0.046493
1219,0.04800272
1215.1,0.04953459
1211.3,0.05102829
1207.4,0.05242315
1203.6,0.05371231
1199.7,0.05499028
1195.9,0.05627869
1192,0.05759003
1188.1,0.05895963
1184.3,0.06046429
1180.4,0.06211422
1176.6,0.06392091
1172.7,0.06587422
1168.9,0.06782533
1165,0.06983057
1161.1,0.07194776
1157.3,0.07416855
1153.4,0.07646086
1149.6,0.07901006
1145.7,0.08189481
1141.9,0.08527528
1138,0.08967184
1134.1,0.09479262
1130.3,0.1009794
1126.4,0.109274
1122.6,0.1206937
1118.7,0.1359561
1114.8,0.1558597
1111,0.1809984
1107.1,0.2115413
1103.3,0.2473893
1099.4,0.2870925
1095.6,0.3281738
1091.7,0.3673919
1087.8,0.4016724
1084,0.4289163
1080.1,0.4484688
1076.3,0.4609758
1072.4,0.4682344
1068.6,0.4714306
1064.7,0.4721336
1060.8,0.4709689
1057,0.4688848
1053.1,0.4667179
1049.3,0.4653231
1045.4,0.4655596
1041.6,0.4684593
1037.7,0.4752047
1033.8,0.4871485
1030,0.5063765
1026.1,0.5359635
1022.3,0.5808999
1018.4,0.6463131
1014.6,0.7299671
1010.7,0.8079557
1006.8,0.8293072
1003,0.7680917
999.1,0.6581134
995.3,0.5406594
991.4,0.4359311
987.5,0.3485396
983.7,0.2771322
979.8,0.2195254
976,0.1736239
972.1,0.1371847
968.3,0.1081347
964.4,0.0846929
960.5,0.06564889
956.7,0.05031535
952.8,0.03798618
949,0.0282349
945.1,0.02063475
941.3,0.01472157
937.4,0.01021901
933.5,0.006862377
929.7,0.004459635
925.8,0.002888759
922,0.002193608
918.1,0.002033015
914.3,0.00205446
910.4,0.00214392
906.5,0.002237031
902.7,0.00310663
898.8,0.005076071
895,0.00848569
891.1,0.01373533
887.3,0.02191412
883.4,0.0343735
879.5,0.05091545
875.7,0.06800859
871.8,0.0822868
868,0.09198766
864.1,0.09496509
860.2,0.08930384
856.4,0.07801336
852.5,0.06891503
848.7,0.06554777
844.8,0.06489789
841,0.06431714
837.1,0.06614163
833.2,0.07459498
829.4,0.0951217
825.5,0.1348949
821.7,0.1915664
817.8,0.2465648
814,0.2908895
810.1,0.340461
806.2,0.4117501
802.4,0.5102279
798.5,0.6283991
794.7,0.7538807
790.8,0.8882085
787,0.9931984
783.1,0.9653613
779.2,0.8108041
775.4,0.6262721
771.5,0.4698169
767.7,0.3570561
763.8,0.2826921
759.9,0.2375986
756.1,0.2036335
752.2,0.1683225
748.4,0.1366041
744.5,0.1135258
740.7,0.09579485
736.8,0.07933451
732.9,0.06472434
729.1,0.05376121
725.2,0.04592379
721.4,0.04078229
717.5,0.04039259
713.7,0.04914431
709.8,0.0687931
705.9,0.08893743
702.1,0.09853268
698.2,0.09903082
694.4,0.09717798
690.5,0.09839591
686.7,0.1018352
682.8,0.09841265
678.9,0.0894935
675.1,0.08295537
671.2,0.08161084
667.4,0.08791377
663.5,0.1040689
659.7,0.1019971
655.8,0.0523346
651.9,0.01990607
648.1,0.008361771
644.2,0.00375855
640.4,0.002193608
636.5,0.001973878
632.6,0.002136915
628.8,0.002151767
624.9,0.001901378
621.1,0.001468059
617.2,0.000808371
613.4,0.000188609
609.5,8.55E-06
605.6,0.000781032
601.8,0.001647115
597.9,0.001532681
594.1,0.000918211
590.2,0.000971236
586.4,0.001672331
582.5,0.002334114
578.6,0.002520008
574.8,0.002709073
570.9,0.002866061
567.1,0.002733676
563.2,0.002531448
559.4,0.002326207
555.5,0.00221938
551.6,0.001869944
547.8,0.001841216
543.9,0.001704372
540.1,0.001527153
536.2,0.001871361
532.4,0.002454582
528.5,0.003431644
524.6,0.00328267
520.8,0.004308092
516.9,0.007028861
513.1,0.01169056
509.2,0.01868904
505.3,0.0285391
501.5,0.04154637
497.6,0.05772217
493.8,0.07601413
489.9,0.09482727
486.1,0.113148
482.2,0.1309192
478.3,0.146934
474.5,0.1595916
470.6,0.168492
466.8,0.1714411
462.9,0.1681798
459.1,0.1594779
455.2,0.1462783
451.3,0.1299096
447.5,0.1108733
443.6,0.09064067
439.8,0.07089964
435.9,0.05189969
432.1,0.03440631
428.2,0.02056072
424.3,0.01182627
420.5,0.002193608
416.6,0.01042936
412.8,0.00998315
408.9,0.01653751
405,0.01766463
401.2,0.009468512