File: Code/databases/xrd.csv
2_theta_1,intensity_1,2_theta_2,intensity_2,2_theta_3,intensity_3,material_name,material_formula
164.92,100,29.76,100,155.65,100,Bowieite,"(Rh,Ir,Pt)1.77S3"
162.84,100,41.38,100,138.39,90,Sudburyite,"(Pd,Ni)Sb"
156.34,100,126.66,80,121.00,70,Rhodium,"(Rh,Pt)"
155.65,100,164.92,100,29.76,100,Bowieite,"(Rh,Ir,Pt)1.77S3"
125.36,100,42.57,100,147.66,70,Skaergaardite,CuPd
98.21,100,90.89,75,48.18,63,Nowackiite,Cu6Zn3As4S12
98.21,100,52.00,100,47.57,80,Kalininite,ZnCr2S4
93.56,100,62.58,100,25.23,100,Ustarasite,"Pb(Bi,Sb)6S10"
93.56,100,25.23,100,62.58,100,Ustarasite,"Pb(Bi,Sb)6S10"
92.54,100,44.14,100,9.18,100,Freboldite,CoSe
92.54,100,9.18,100,44.14,100,Freboldite,CoSe
90.04,100,49.32,100,37.92,90,Ferdisilicite,FeSi2
86.90,100,32.90,100,16.28,100,Arsenolamprite,As
86.90,100,16.28,100,32.90,100,Arsenolamprite,As
84.83,100,89.51,80,41.38,80,Chengdeite,Ir3Fe
84.83,100,41.38,80,89.51,80,Chengdeite,Ir3Fe
83.57,100,45.30,90,100.34,70,Gupeiite,Fe3Si
83.22,100,44.83,100,65.18,80,Chromferide,"Fe3Cr1-x (x=0,6)"
82.95,100,40.45,90,46.99,70,Isoferroplatinum,"(Pt,Pd)3(Fe,Cu)"
80.27,100,40.23,100,150.24,90,Tetra-auricupride,AuCu
80.19,100,45.52,100,50.17,90,Fersilicite,FeSi
79.71,100,39.22,100,66.33,90,Rustenburgite,"(Pt,Pd)3Sn"
79.71,100,39.22,100,66.33,90,Atokite,"(Pd,Pt)3Sn"
78.30,100,42.40,100,69.58,60,Osmium,"(Os,Ir)"
72.74,100,41.72,100,60.50,80,Khamrabaevite,"(Ti,V,Fe)C"
72.29,100,19.20,100,5.52,100,Perlialite,K8Tl4Al12Si24O72•20(H2O)
72.29,100,5.52,100,19.20,100,Perlialite,K8Tl4Al12Si24O72•20(H2O)
70.72,100,29.06,100,48.27,80,Maikainite,"Cu20(Fe,Cu)6Mo2Ge6S32"
70.48,100,40.17,90,25.31,90,Baotite,"Ba4(Ti,Nb)8Si4O28Cl"
70.48,100,25.31,90,40.17,90,Baotite,"Ba4(Ti,Nb)8Si4O28Cl"
68.14,100,27.59,100,25.06,100,Julienite,Na2Co++(SCN)4•8(H2O)
68.14,100,25.06,100,27.59,100,Julienite,Na2Co++(SCN)4•8(H2O)
67.92,50,56.29,50,53.31,50,Oxyvanite,V3O5
67.92,50,53.31,50,36.80,50,Oxyvanite,V3O5
67.92,50,53.31,50,56.29,50,Oxyvanite,V3O5
67.53,100,32.53,100,31.03,70,Olkhonskite,"(Cr+++,V+++)2Ti3O9"
67.42,100,20.79,100,41.19,90,Jeremejevite,"Al6B5O15(F,OH)3"
67.31,100,37.28,100,8.18,100,Glucine,CaBe4(PO4)2(OH)4•0.5(H2O)
67.31,100,8.18,100,37.28,100,Glucine,CaBe4(PO4)2(OH)4•0.5(H2O)
67.25,100,37.60,87,33.43,71,Zincostaurolite,"[ ]4Zn4Al16(Al,[ ])2Si8O40[O6,(OH)2]"
66.76,100,62.26,100,36.04,50,Leadamalgam,HgPb2
65.18,100,56.78,100,29.86,100,Augite,"(Ca,Na)(Mg,Fe,Al,Ti)(Si,Al)2O6"
65.18,100,29.86,100,56.78,100,Augite,"(Ca,Na)(Mg,Fe,Al,Ti)(Si,Al)2O6"
65.03,100,58.27,100,31.36,100,Batisivite,"(Ti,V,Cr)14Ba[Si2O7]O22"
65.03,100,31.36,100,58.27,100,Batisivite,"(Ti,V,Cr)14Ba[Si2O7]O22"
64.68,100,42.19,100,40.04,90,Mathiasite,"(K,Ca,Sr)(Ti,Cr,Fe,Mg)21O38"
64.68,90,31.47,90,54.23,85,Romanite,"(Fe++,U,Pb)2(Ti,Fe+++)O4"
64.18,100,36.19,100,44.30,90,Bityite,CaLiAl2(AlBeSi2)O10(OH)2
62.58,100,93.56,100,25.23,100,Ustarasite,"Pb(Bi,Sb)6S10"
62.49,100,9.04,100,28.13,100,Brammallite,"(Na,H3O)(Al,Mg,Fe)2(Si,Al)4O10[(OH)2,(H2O)]"
62.49,100,28.13,100,9.04,100,Brammallite,"(Na,H3O)(Al,Mg,Fe)2(Si,Al)4O10[(OH)2,(H2O)]"
62.44,100,44.14,100,41.99,100,Niggliite,PtSn
62.44,100,41.99,100,44.14,100,Niggliite,PtSn
62.40,100,57.83,100,30.81,90,Shuiskite,"Ca2(Mg,Al)(Cr,Al)2(SiO4)(Si2O7)(OH)2•(H2O)"
62.26,100,66.76,100,36.04,50,Leadamalgam,HgPb2
62.07,100,30.59,80,10.65,60,Chrysocolla,"(Cu,Al)2H2Si2O5(OH)4•n(H2O)"
62.03,100,79.55,90,31.59,70,Luanheite,Ag3Hg
61.66,100,34.85,100,36.54,70,Preiswerkite,NaMg2Al3Si2O10(OH)2
61.52,100,36.12,100,62.58,90,Manganoneptunite,"KNa2Li(Mn,Fe++)2Ti2Si8O24"
61.43,100,29.55,100,50.88,70,Calciotantite,"Ca(Ta,Nb)4O11"
61.30,100,34.47,90,17.04,85,Takeuchiite,Mg2Mn+++O2(BO3)
61.07,100,41.72,100,27.95,100,Babefphite,"BaBe(PO4)(F,O)"
61.07,100,27.95,100,41.72,100,Babefphite,"BaBe(PO4)(F,O)"
60.94,100,34.47,100,19.62,80,Chromphyllite,"(K,Ba)(Cr,Al)2[AlSi3O10](OH,F)2"
60.90,100,19.45,100,5.73,100,Nontronite,"Na0.3Fe+++2(Si,Al)4O10(OH)2•n(H2O)"
60.90,100,5.73,100,19.45,100,Nontronite,"Na0.3Fe+++2(Si,Al)4O10(OH)2•n(H2O)"
60.81,100,37.28,100,26.51,90,Shirokshinite,K(NaMg2)Si4O10F2
60.46,-,34.33,-,22.72,-,Kurumsakite,"(Zn,Ni,Cu)8Al8V2Si5O35•27(H2O) (?)"
60.46,100,19.36,100,5.59,80,Hectorite,"Na0,3(Mg,Li)3Si4O10(OH)2"
60.07,100,50.55,100,30.38,100,Tazheranite,CaTiZr2O8
60.07,100,30.38,100,50.55,100,Tazheranite,CaTiZr2O8
60.02,100,38.27,60,33.67,60,Mcgovernite,Mn9Mg4Zn2As2Si2O17(OH)14
60.02,100,34.74,100,31.03,60,Majorite,"Mg3(Fe,Al,Si)2(SiO4)3"
60.02,100,34.74,100,31.03,60,Pyrope,Mg3Al2(SiO4)3
60.02,100,33.54,100,5.73,100,Sauconite,"Na0,3Zn3(Si,Al)4O10(OH)2•4(H2O)"
60.02,100,24.78,100,20.35,100,Neotocite,"(Mn,Fe++)SiO3•(H2O) (?)"
60.02,100,20.35,100,24.78,100,Neotocite,"(Mn,Fe++)SiO3•(H2O) (?)"
60.02,100,5.73,100,33.54,100,Sauconite,"Na0,3Zn3(Si,Al)4O10(OH)2•4(H2O)"
60.02,100,33.67,60,38.27,60,Mcgovernite,Mn9Mg4Zn2As2Si2O17(OH)14
59.85,100,35.08,100,29.84,60,Glagolevite,"NaMg6[Si3AlO10](OH,O)8•H2O"
59.85,100,29.84,100,34.51,60,Glagolevite,"NaMg6[Si3AlO10](OH,O)8•H2O"
59.68,100,50.28,100,30.38,100,Lewisite,"(Ca,Fe++,Na)2(Sb,Ti)2O7"
59.68,100,30.38,100,50.28,100,Lewisite,"(Ca,Fe++,Na)2(Sb,Ti)2O7"
59.60,100,35.57,100,50.52,92,Sabelliite,"Cu2Zn(As,Sb)O4(OH)3"
59.51,100,50.14,100,30.27,100,Uranmicrolite,"(U,Ca)2(Ta,Nb)2O6(OH)"
59.51,100,30.27,100,50.14,100,Uranmicrolite,"(U,Ca)2(Ta,Nb)2O6(OH)"
58.60,100,34.20,100,30.59,90,Calderite,"(Mn++,Ca)3(Fe+++,Al)2(SiO4)3"
58.27,100,65.03,100,31.36,100,Batisivite,"(Ti,V,Cr)14Ba[Si2O7]O22"
58.07,100,49.50,100,29.36,100,Cesstibtantite,"(Cs,Na)SbTa4O12"
58.07,100,29.36,100,49.50,100,Cesstibtantite,"(Cs,Na)SbTa4O12"
57.95,100,50.67,100,42.40,100,Lindsleyite,"(Ba,Sr)(Ti,Cr,Fe,Mg)21O38"
57.95,100,42.40,100,50.67,100,Lindsleyite,"(Ba,Sr)(Ti,Cr,Fe,Mg)21O38"
57.83,100,62.40,100,30.81,90,Shuiskite,"Ca2(Mg,Al)(Cr,Al)2(SiO4)(Si2O7)(OH)2•(H2O)"
57.32,-,30.80,-,26.08,-,Dessauite,"(Sr,Pb)(Y,U)(Ti,Fe+++)20O38"
57.21,100,28.23,100,34.02,80,Cobaltaustinite,CaCo(AsO4)(OH)
57.17,100,35.60,100,30.27,100,Maghemite,gamma-Fe+++2O3
57.17,100,30.27,100,35.60,100,Maghemite,gamma-Fe+++2O3
56.86,100,48.57,100,33.86,100,Zavaritskite,BiOF
56.86,100,33.86,100,48.57,100,Zavaritskite,BiOF
56.78,100,65.18,100,29.86,100,Augite,"(Ca,Na)(Mg,Fe,Al,Ti)(Si,Al)2O6"
56.78,100,33.03,100,29.45,80,Hibschite,Ca3Al2(SiO4)3-x(OH)4x(x=0.2-1.5)
56.78,100,30.27,100,42.19,100,Bismutite,Bi2(CO3)O2
56.78,100,65.18,100,29.86,100,Augite,"(Ca,Na)(Mg,Fe,Al,Ti)(Si,Al)2O6"
56.59,100,42.19,100,42.99,60,Pseudosinhalite,Mg2Al3B2O9(OH)
56.44,100,33.68,100,16.71,100,Murdochite,"PbCu6O8-x(Cl,Br)2x"
56.44,100,16.71,100,33.68,100,Murdochite,"PbCu6O8-x(Cl,Br)2x"
56.36,-,45.30,-,31.58,-,Hapkeite,Fe2Si
56.29,50,67.92,50,53.31,50,Oxyvanite,V3O5
56.29,100,33.04,85,37.07,65,Pyrite,FeS2
56.21,100,26.91,100,11.95,100,Akaganeite,"Fe+++(O,OH,Cl)"
56.21,100,22.21,98,38.61,69,Nsutite,(Mn++++1-x)(Mn++x)(O2-2x)(OH2x) where x = 0.06-0.07
56.21,100,11.95,100,26.91,100,Akaganeite,"Fe+++(O,OH,Cl)"
56.03,100,67.31,95,31.47,85,Simpsonite,"Al4(Ta,Nb)3O13(OH)"
55.66,-,41.99,-,36.65,-,Akhtenskite,Mn++++O2
55.04,100,35.32,90,32.05,80,Kimzeyite,"Ca3(Zr,Ti)2(Si,Al,Fe+++)3O12"
54.94,100,65.70,60,41.78,60,Kleberite,FeTi6O13•4(H2O) (?)
54.94,100,33.54,97,24.50,96,Eskolaite,Cr2O3
54.94,100,41.78,60,65.70,60,Kleberite,FeTi6O13•4(H2O) (?)
54.86,100,47.83,100,36.80,100,Malyshevite,PdCuBiS3
54.86,100,36.80,100,23.58,100,Malyshevite,PdCuBiS3
54.86,100,36.80,100,47.83,100,Malyshevite,PdCuBiS3
54.79,100,38.10,90,31.36,90,Polydymite,NiNi2S4
54.79,100,31.36,90,38.10,90,Polydymite,NiNi2S4
54.58,100,49.79,60,31.14,50,Fletcherite,"Cu(Ni,Co)2S4"
54.58,100,34.60,100,32.29,80,Cobaltite,CoAsS
54.58,100,32.05,96,46.03,52,Bravoite,"(Fe,Ni,Co)S2"
54.48,100,34.74,100,31.70,90,Yafsoanite,Ca3Te2Zn3O12
54.37,100,36.18,80,41.32,70,Pseudorutile,Fe+++2Ti3O9
54.30,100,61.30,60,33.50,60,Schallerite,Mn++16[As+++O2OH][Si12O30](OH)14
54.30,100,33.50,60,61.30,60,Schallerite,Mn++16[As+++O2OH][Si12O30](OH)14
54.23,100,53.89,100,64.93,90,Davidite-(Ce),"(Ce,La)(Y,U)(Ti,Fe+++)20O38"
54.23,100,27.77,80,36.19,60,Belyankinite,"Ca1-2(Ti,Zr,Nb)5O12•9(H2O) (?)"
54.16,40,36.19,30,27.77,20,Manganbelyankinite,"(Mn,Ca)(Ti,Nb)5O12•9(H2O)"
54.16,40,27.77,30,30.92,20,Manganbelyankinite,"(Mn,Ca)(Ti,Nb)5O12•9(H2O)"
54.09,100,27.35,80,29.91,70,Yttrobetafite-(Y),"(Y,U,Ce)2(Ti,Nb,Ta)2O6(OH)"
54.06,100,27.42,80,31.82,70,Laurite,RuS2
53.89,100,54.23,100,64.93,90,Davidite-(Ce),"(Ce,La)(Y,U)(Ti,Fe+++)20O38"
53.78,100,34.76,90,33.06,88,Tistarite,Ti2O3
53.65,100,27.16,100,35.60,90,Struverite,"(Ti,Ta,Fe+++)O2"
53.55,100,23.84,90,33.04,70,Natanite,Fe++Sn++++(OH)6
53.44,100,45.07,100,33.28,90,Maucherite,Ni11As8
53.44,100,40.15,88,32.56,65,IMA2008-060,Mg2(BO3)(OH)
53.31,50,56.29,50,67.92,50,Oxyvanite,V3O5
53.21,100,43.25,90,30.59,50,Gagarinite-(Y),"NaCaY(F,Cl)6"
53.21,100,36.56,100,20.98,100,Hisingerite,Fe+++2Si2O5(OH)4•2(H2O)
53.21,100,27.33,90,35.16,80,Ordonezite,ZnSb2O6
53.21,100,30.59,90,29.76,50,Gagarinite-(Y),"NaCaY(F,Cl)6"
53.21,100,20.98,100,36.56,100,Hisingerite,Fe+++2Si2O5(OH)4•2(H2O)
52.55,100,35.02,80,26.75,80,Tapiolite,"(Fe,Mn)(Ta,Nb)2O6"
52.55,100,35.02,80,26.75,80,Tapiolite-(Fe),"(Fe++,Mn++)(Ta,Nb)2O6"
52.55,100,31.14,100,26.91,100,Hollingworthite,"(Rh,Pt,Pd)AsS"
52.55,100,31.14,100,26.83,100,Irarsite,"(Ir,Ru,Rh,Pt)AsS"
52.55,100,24.03,70,17.65,70,Clinohumite,"(Mg,Fe++)9(SiO4)4(F,OH)2"
52.55,100,17.65,70,24.03,70,Clinohumite,"(Mg,Fe++)9(SiO4)4(F,OH)2"
52.55,100,26.83,100,31.14,100,Irarsite,"(Ir,Ru,Rh,Pt)AsS"
52.55,100,26.91,100,31.14,100,Hollingworthite,"(Rh,Pt,Pd)AsS"
52.55,100,26.75,80,35.02,80,Tapiolite-(Fe),"(Fe++,Mn++)(Ta,Nb)2O6"
52.55,100,26.75,80,35.02,80,Tapiolite,"(Fe,Mn)(Ta,Nb)2O6"
52.45,100,31.15,100,33.78,70,Sonolite,"Mn9(SiO4)4(OH,F)2"
52.42,90,34.33,80,27.00,70,Bezsmertnovite,"Au4Cu(Te,Pb)"
52.42,80,38.78,80,50.95,80,Felbertalite,Cu2Pb6Bi8S19
52.36,100,30.85,90,26.63,80,Platarsite,"(Pt,Rh,Ru)AsS"
52.23,100,47.83,70,29.96,60,Malanite,"Cu(Pt,Ir)2S4"
52.23,100,34.47,80,26.75,80,Varlamoffite,"(Sn,Fe)(O,OH)2"
52.23,100,31.36,100,36.96,70,Gehlenite,Ca2Al(AlSi)O7
52.23,100,26.75,80,34.47,80,Varlamoffite,"(Sn,Fe)(O,OH)2"
52.07,100,49.15,90,59.64,80,Polkanovite,Rh12As7
52.07,100,36.19,100,29.76,80,Trustedtite,Ni3Se4
52.00,100,98.21,100,47.57,80,Kalininite,ZnCr2S4
51.97,100,29.76,100,99.53,90,Cuprorhodsite,CuRh2S4
51.91,100,29.76,100,36.06,90,Cuproiridsite,CuIr2S4
51.81,100,29.96,100,36.51,90,Konderite,"PbCu3(Rh,Pt,Ir)8S16"
51.81,100,29.67,100,47.36,80,Cobaltpentlandite,Co9S8
51.75,100,31.36,80,27.51,60,Roshchinite,"Ag19Pb10Sb51S96 or Pb(Ag,Cu)2(Sb,As)5S10"
51.75,100,29.76,80,15.26,80,Xingzhongite,"(Pb,Cu,Fe)(Ir,Pt,Rh)2S4"
51.75,100,15.26,80,29.76,80,Xingzhongite,"(Pb,Cu,Fe)(Ir,Pt,Rh)2S4"
51.72,100,33.57,100,28.78,100,Yftisite-(Y),"(Y,Dy,Er)4(Ti,Sn)O(SiO4)2(F,OH)6"
51.72,100,28.78,100,33.57,100,Yftisite-(Y),"(Y,Dy,Er)4(Ti,Sn)O(SiO4)2(F,OH)6"
51.66,100,29.65,100,35.89,80,Florensovite,Cu(Cr1.5Sb0.5)S4
51.63,100,35.88,90,30.96,70,Tyrrellite,"(Cu,Co,Ni)3Se4"
51.59,100,29.55,80,35.74,60,Daubreelite,Fe++Cr2S4
51.47,100,29.55,90,40.23,90,Miassite,Rh17S15
51.47,100,40.23,90,29.55,90,Miassite,Rh17S15
51.44,100,29.45,80,47.02,50,Pentlandite,"(Fe,Ni)9S8"
51.41,100,10.16,100,29.06,90,Vozhminite,"(Ni,Co)4(As,Sb)S2"
51.31,100,30.92,90,30.27,90,Weberite,Na2MgAlF7
51.31,100,30.27,90,30.92,90,Weberite,Na2MgAlF7
51.22,100,38.58,80,28.76,80,Welinite-III,"Mn++6(W++++++,Mg)2Si2(O,OH)14"
51.22,100,38.58,80,28.76,80,Welinite-VIII,"(Mn++,Mg)3(W++++++,Mn+++)1-x(SiO4)(O,OH)3 (x=1/3)"
51.22,100,28.76,80,38.58,80,Welinite-III,"Mn++6(W++++++,Mg)2Si2(O,OH)14"
51.22,100,28.76,80,38.58,80,Welinite-VIII,"(Mn++,Mg)3(W++++++,Mn+++)1-x(SiO4)(O,OH)3 (x=1/3)"
51.22,100,26.24,89,35.70,79,Manganhumite,"(Mn,Mg)7(SiO4)3(OH)2"
50.95,80,38.78,80,52.42,80,Felbertalite,Cu2Pb6Bi8S19
50.95,80,52.42,80,44.58,80,Felbertalite,Cu2Pb6Bi8S19
50.95,80,52.42,80,38.78,80,Felbertalite,Cu2Pb6Bi8S19
50.79,100,35.14,80,31.10,80,Ribbeite,"(Mn++,Mg)5(SiO4)2(OH)2"
50.79,100,31.10,80,35.14,80,Ribbeite,"(Mn++,Mg)5(SiO4)2(OH)2"
50.76,100,71.09,80,40.57,80,Zoubekite,AgPb4Sb4S10
50.76,100,40.57,80,71.09,80,Zoubekite,AgPb4Sb4S10
50.73,100,45.40,80,25.86,20,Ertixiite,Na2Si4O9
50.70,100,31.25,80,34.49,60,Alleghanyite,Mn5(SiO4)2(OH)2
50.67,100,51.44,90,52.39,80,Vincentite,"(Pd,Pt)3(As,Sb,Te)"
50.67,100,44.83,100,33.15,100,Wilkmanite,Ni3Se4
50.67,100,52.39,90,51.97,80,Vincentite,"(Pd,Pt)3(As,Sb,Te)"
50.67,100,33.15,100,44.83,100,Wilkmanite,Ni3Se4
50.67,100,57.95,100,42.40,100,Lindsleyite,"(Ba,Sr)(Ti,Cr,Fe,Mg)21O38"
50.64,100,84.28,70,29.96,60,Sperrylite,PtAs2
50.64,100,30.32,100,60.15,90,Calzirtite,CaZr3TiO9
50.55,100,30.89,100,23.99,60,Nordenskioldine,CaSnB2O6
50.55,100,60.07,100,30.38,100,Tazheranite,CaTiZr2O8
50.49,100,35.06,100,31.15,78,Jerrygibbsite,"(Mn,Zn)9(SiO4)4(OH)2"
50.49,100,31.06,90,33.36,80,Leucophoenicite,Mn7(SiO4)3(OH)2
50.37,100,27.25,100,28.22,90,Nasonite,Pb6Ca4Si6O21Cl2
50.34,100,33.88,100,25.29,100,Chernovite-(Y),YAsO4
50.34,100,25.29,100,33.88,100,Chernovite-(Y),YAsO4
50.28,100,84.47,90,29.86,90,Tolovkite,IrSbS
50.28,100,59.68,100,30.38,100,Lewisite,"(Ca,Fe++,Na)2(Sb,Ti)2O7"
50.28,100,29.86,90,84.47,90,Tolovkite,IrSbS
50.14,100,28.59,80,21.29,80,Tungusite,[Ca14(OH)8](Si8020)(Si8020)2[Fe++9(OH)14]
50.14,100,21.29,80,28.59,80,Tungusite,[Ca14(OH)8](Si8020)(Si8020)2[Fe++9(OH)14]
50.14,100,59.51,100,30.27,100,Uranmicrolite,"(U,Ca)2(Ta,Nb)2O6(OH)"
50.11,100,40.23,100,28.13,100,Argentite,Ag2S
50.11,100,28.13,100,40.23,100,Argentite,Ag2S
50.11,70,18.70,70,40.04,70,Fullerite,C60
50.08,100,25.84,89,45.59,82,Rambergite,MnS
49.84,100,29.91,70,37.90,60,Djerfisherite,"K6Na(Fe,Cu,Ni)25S26Cl"
49.79,100,31.82,100,28.87,100,Plombierite,Ca5H2Si6O18•6H2O
49.79,100,30.92,90,55.29,80,Heazlewoodite,Ni3S2
49.79,100,28.87,100,31.82,100,Plombierite,Ca5H2Si6O18•6H2O
49.73,100,30.48,90,28.97,80,Betekhtinite,"Cu10(Fe,Pb)S6"
49.67,100,41.13,100,27.33,90,Chukhrovite-(Y),"Ca3(Y,Ce)Al2(SO4)F13•10(H2O)"
49.64,100,37.80,90,29.80,90,Owensite,"(Ba,Pb)6(Cu,Fe,Ni)25S27"
49.64,100,29.80,90,37.80,90,Owensite,"(Ba,Pb)6(Cu,Fe,Ni)25S27"
49.55,100,82.18,95,112.02,90,Kalungaite,PdAsSe
49.53,100,11.53,100,38.44,90,Chlormagaluminite,"(Mg,Fe++)4Al2(OH)12(Cl2,CO3)•2(H2O)"
49.50,100,58.07,100,29.36,100,Cesstibtantite,"(Cs,Na)SbTa4O12"
49.44,100,33.97,90,34.90,80,Zirsinalite,"Na6(Ca,Mn,Fe++)Zr[Si6O18]"
49.38,100,29.16,80,48.13,60,Luobusaite,Fe0.83Si2
49.32,100,90.04,100,37.92,90,Ferdisilicite,FeSi2
49.24,100,28.87,80,19.28,80,Caledonite,Pb5Cu2(CO3)(SO4)3(OH)6
49.24,100,19.28,80,28.87,80,Caledonite,Pb5Cu2(CO3)(SO4)3(OH)6
49.21,100,34.06,80,33.28,80,Glaucochroite,CaMnSiO4
49.21,100,33.28,80,34.06,80,Glaucochroite,CaMnSiO4
49.10,100,31.62,100,29.61,100,Saryarkite-(Y),"Ca(Y,Th)Al5(SiO4)2(PO4,SO4)2(OH)7•6(H2O)"
49.10,100,29.61,100,31.62,100,Saryarkite-(Y),"Ca(Y,Th)Al5(SiO4)2(PO4,SO4)2(OH)7•6(H2O)"
49.04,100,31.94,100,25.43,100,Plattnerite,PbO2
49.04,100,25.43,100,31.94,100,Plattnerite,PbO2
48.99,100,28.13,100,44.88,40,Argentopentlandite,"Ag(Fe,Ni)8S8"
48.93,100,32.53,70,35.74,60,Changchengite,IrBiS
48.73,100,57.83,99,33.90,65,Plumbomicrolite,"(Pb,Ca,U)2Ta2O6(OH)"
48.73,100,25.84,100,46.03,90,Calciborite,CaB2O4
48.65,100,29.36,100,57.95,50,Arsenosulvanite,"Cu3(As,V)S4"
48.62,100,46.18,90,37.65,90,Djurleite,Cu31S16
48.62,100,37.65,90,46.18,90,Djurleite,Cu31S16
48.57,100,56.86,100,33.86,100,Zavaritskite,BiOF
48.54,100,63.15,69,38.02,69,Brizziite-III,NaSb+++++O3
48.54,100,63.15,69,38.02,69,Brizziite-VII,NaSb+++++O3
48.54,100,38.02,69,63.15,69,Brizziite-VII,NaSb+++++O3
48.54,100,38.02,69,63.15,69,Brizziite-III,NaSb+++++O3
48.51,100,30.48,80,50.31,70,Luberoite,Pt5Se4
48.51,100,27.87,100,44.35,81,Palladseite,Pd17Se15
48.46,100,46.31,90,45.35,80,Novakite,"(Cu,Ag)21As10"
48.37,100,45.91,70,37.39,70,Chalcocite,Cu2S
48.37,100,37.39,70,45.91,70,Chalcocite,Cu2S
48.21,100,33.54,100,11.68,100,Borcarite,Ca4MgB4O6(OH)6(CO3)2
48.21,100,11.68,100,33.54,100,Borcarite,Ca4MgB4O6(OH)6(CO3)2
48.18,100,18.10,100,38.40,88,Zincalstibite,Zn2AlSb(OH)12
48.10,100,49.79,90,45.30,90,Synchysite-(Y),CaY(CO3)2F
48.10,100,27.16,90,35.31,60,Eglestonite,Hg6Cl3O(OH) (?)
48.10,100,24.03,80,28.04,60,Gerasimovskite,"(Mn,Ca)(Nb,Ti)5O12•9(H2O) (?)"
48.10,100,45.30,90,49.79,90,Synchysite-(Y),CaY(CO3)2F
48.05,100,45.79,100,28.97,100,Hypercinnabar,HgS
48.05,100,23.45,100,48.65,80,Osarsite,"(Os,Ru)AsS"
48.05,100,28.97,100,45.79,100,Hypercinnabar,HgS
47.86,100,29.15,55,32.33,35,Yarrowite,Cu9S8
47.83,100,35.89,100,34.47,100,Hastite,CoSe2
47.83,100,34.47,100,35.89,100,Hastite,CoSe2
47.83,100,54.86,100,36.80,100,Malyshevite,PdCuBiS3
47.78,100,26.71,80,30.77,75,Reinhardbraunsite,"Ca5(SiO4)2(OH,F)2"
47.73,100,55.33,63,29.41,62,Kumtyubeite,Ca5(SiO4)2F2
47.73,100,28.68,80,56.59,40,Chatkalite,Cu6Fe++Sn2S8
47.57,100,40.78,100,19.62,100,Hongshiite,PtCu
47.57,100,32.80,74,29.35,65,Chegemite,Ca7(SiO4)3(OH)2
47.57,100,29.00,85,32.21,30,Spionkopite,Cu1.4S
47.57,100,19.62,100,40.78,100,Hongshiite,PtCu
47.44,100,34.06,100,33.54,80,Omeiite,"(Os,Ru)As2"
47.41,100,38.96,100,44.21,99,Ekaterinite,"Ca2B4O7(Cl,OH)2•2(H2O)"
47.36,100,45.86,100,42.82,40,Orcelite,Ni5-xAs2 (x=0.23)
47.36,100,41.50,100,26.75,100,Genthelvite,Zn4Be3(SiO4)3S
47.36,100,33.03,50,23.20,35,Neighborite,NaMgF3
47.36,100,26.75,100,41.50,100,Genthelvite,Zn4Be3(SiO4)3S
47.30,100,89.41,90,61.75,90,Anduoite,"(Ru,Os)As2"
47.30,100,61.75,90,89.41,90,Anduoite,"(Ru,Os)As2"
47.20,100,45.86,100,41.99,65,Perryite,"(Ni,Fe)8(Si,P)3"
47.17,100,28.35,90,27.15,90,Geffroyite,"(Ag,Cu,Fe)9(Se,S)8"
47.17,100,27.15,90,28.35,90,Geffroyite,"(Ag,Cu,Fe)9(Se,S)8"
47.15,100,63.25,90,38.00,90,Satpaevite,Al12V++++2V+++++6O37•30(H2O)
47.15,100,38.00,90,63.25,90,Satpaevite,Al12V++++2V+++++6O37•30(H2O)
47.04,100,27.25,100,29.96,100,Juanite,Ca10Mg4Al2Si11O39•4(H2O) (?)
47.04,100,10.89,60,30.59,60,Bultfonteinite,"Ca2SiO2(OH,F)4"
47.04,100,29.96,100,27.25,100,Juanite,Ca10Mg4Al2Si11O39•4(H2O) (?)
47.04,100,27.25,100,29.96,100,Juanite,Ca10Mg4Al2Si11O39•4(H2O) (?)
47.04,100,10.89,60,30.59,60,Bultfonteinite,"Ca2SiO2(OH,F)4"
47.02,100,28.28,94,55.77,35,Fluorite,CaF2
46.99,100,30.63,60,54.44,45,Jaipurite,CoS
46.97,100,37.85,90,49.01,80,Roxbyite,Cu1.78S
46.86,100,28.04,60,32.65,50,Bornite,Cu5FeS4
46.86,100,27.77,100,45.07,90,Huanghoite-(Ce),BaCe(CO3)2F
46.79,100,53.21,60,30.59,40,Geversite,"Pt(Sb,Bi)2"
46.79,100,21.73,51,36.87,39,Stalderite,"TlCu(Zn,Fe,Hg)2As2S6"
46.76,100,32.57,95,22.88,60,Cryolite,Na3AlF6
46.74,100,34.06,100,35.45,80,Oenite,CoSbAs
46.66,100,37.44,100,29.55,100,Chvilevaite,"Na(Cu,Fe,Zn)2S2"
46.66,100,29.55,100,37.44,100,Chvilevaite,"Na(Cu,Fe,Zn)2S2"
46.58,100,32.17,100,25.96,75,Bastnasite-(Y),Y(CO3)F
46.48,100,28.04,100,54.90,50,Mgriite,"(Cu,Fe)3AsSe3"
46.41,100,76.08,80,52.71,80,Mayingite,IrBiTe
46.41,100,52.71,80,76.08,80,Mayingite,IrBiTe
46.38,100,31.45,81,57.13,23,Vavrinite,Ni2SbTe2
46.38,100,32.63,100,33.30,80,Chrisstanleyite,Ag2Pd3Se4
46.38,100,28.74,68,32.42,53,Pizgrischite,"(Cu,Fe)Cu14PbBi17S35"
46.28,100,40.80,80,20.69,80,Cryolithionite,Na3Li3Al2F12
46.28,100,32.29,65,27.86,57,Anilite,Cu7S4
46.28,100,27.95,95,54.90,80,Eskebornite,CuFeSe2
46.28,100,20.69,80,40.80,80,Cryolithionite,Na3Li3Al2F12
46.16,100,29.18,100,27.51,100,Fergusonite-beta-(Ce),"(Ce,La,Nd)NbO4"
46.16,100,27.51,100,29.18,100,Fergusonite-beta-(Ce),"(Ce,La,Nd)NbO4"
46.08,100,67.31,82,37.60,50,Magnesiostaurolite,"[ ]4Mg4Al16(Al,[ ])2Si8O40[O6,(OH)2]"
45.96,100,32.05,40,27.77,40,Digenite,Cu9S5
45.96,100,27.77,40,32.05,40,Digenite,Cu9S5
45.89,100,72.87,60,43.32,60,Hexaferrum,"(Fe,Os,Ru,Ir)"
45.89,100,43.32,60,72.87,60,Hexaferrum,"(Fe,Os,Ru,Ir)"
45.86,100,47.20,100,41.99,65,Perryite,"(Ni,Fe)8(Si,P)3"
45.86,100,47.36,100,42.82,40,Orcelite,Ni5-xAs2 (x=0.23)
45.79,100,48.05,100,28.97,100,Hypercinnabar,HgS
45.74,100,30.62,90,31.41,60,Larosite,"(Cu,Ag)21(Pb,Bi)2S13"
45.59,100,33.80,100,41.19,70,Majakite,PdNiAs
45.57,100,42.82,40,40.04,20,Algodonite,Cu6As
45.55,100,36.88,100,65.70,60,Surinamite,"(Mg,Fe++)3Al4BeSi3O16"
45.55,100,33.15,80,30.17,80,Insizwaite,"Pt(Bi,Sb)2"
45.55,100,30.17,80,33.15,80,Insizwaite,"Pt(Bi,Sb)2"
45.52,100,80.19,100,50.17,90,Fersilicite,FeSi
45.30,100,47.30,80,46.79,80,Xifengite,Fe5Si3
45.30,100,26.35,100,26.19,100,Ardaite,Pb19Sb13S35Cl7
45.30,100,46.79,80,47.30,80,Xifengite,Fe5Si3
45.30,100,26.19,100,26.35,100,Ardaite,Pb19Sb13S35Cl7
45.30,-,31.58,-,56.36,-,Hapkeite,Fe2Si
45.28,100,44.28,90,43.27,80,Koutekite,Cu5As2
45.23,100,30.06,100,51.35,80,Michenerite,"(Pd,Pt)BiTe"
45.19,100,83.22,30,66.23,10,Suessite,"(Fe,Ni)3Si"
45.19,100,47.67,60,50.20,20,Melliniite,"(Ni,Fe)4P"
45.16,100,38.07,100,20.97,100,Khaidarkanite,Na0.34Cu4Al3(OH)14F3•2(H2O)
45.16,100,20.97,100,38.07,100,Khaidarkanite,Na0.34Cu4Al3(OH)14F3•2(H2O)
45.07,100,43.92,70,37.77,65,Cohenite,"(Fe,Ni,Co)3C"
45.07,100,38.78,90,65.49,50,Griceite,LiF
45.07,100,32.04,50,35.77,40,Sheldrickite,NaCa3(CO3)2F3•(H2O)
45.07,100,29.96,75,26.75,70,Aurostibite,AuSb2
45.07,100,53.44,100,33.28,90,Maucherite,Ni11As8
44.90,100,28.68,100,32.10,80,Bariosincosite,Ba(V++++O)2(PO4)2•4(H2O)
44.83,100,43.25,100,38.27,100,Calcioancylite-(Ce),CaCe(CO3)2(OH)•(H2O)
44.83,-,38.27,-,31.59,-,Tertschite,Ca4B10O19•20(H2O)
44.83,100,31.82,70,28.68,70,Korzhinskite,CaB2O4•(H2O)
44.83,100,31.36,100,29.36,100,Marianoite,"Na2Ca4(Nb,Zr)2(Si2O7)2(O,F)4"
44.83,100,26.83,90,53.01,80,Berzelianite,Cu2Se
44.83,100,28.68,70,31.82,70,Korzhinskite,CaB2O4•(H2O)
44.83,100,29.36,100,31.36,100,Marianoite,"Na2Ca4(Nb,Zr)2(Si2O7)2(O,F)4"
44.83,100,38.27,100,43.25,100,Calcioancylite-(Ce),CaCe(CO3)2(OH)•(H2O)
44.83,100,50.67,100,33.15,100,Wilkmanite,Ni3Se4
44.83,100,83.22,100,65.18,80,Chromferide,"Fe3Cr1-x (x=0,6)"
44.76,100,31.22,100,25.21,50,Mummeite,Cu0.58Ag3.11Pb1.10Bi6.65S13
44.67,100,82.35,30,65.03,20,Iron,Fe
44.60,100,46.11,60,64.93,30,Kamacite,"alpha-(Fe,Ni)"
44.60,100,31.36,100,25.14,80,Thorbastnasite,"Th(Ca,Ce)(CO3)2F2•3(H2O)"
44.60,100,31.25,70,25.28,60,Vulcanite,CuTe
44.51,100,51.85,42,76.37,21,Nickel,Ni
44.41,100,48.90,50,78.46,24,Brownleeite,MnSi
44.39,100,81.75,30,115.26,20,Chromium,Cr
44.37,100,82.35,90, <90 ,80,Ferchromide,"Cr3Fe1-x(x=0,6)"
44.37,100,17.37,100,8.75,60,Uranocircite,Ba(UO2)2(PO4)2•12(H2O)
44.28,100,45.98,67,39.89,44,Mavlyanovite,Mn5Si3
44.23,100,38.61,50,78.61,40,IMA2008-055,"(Ni,Fe,Ir)"
44.23,100,78.61,50,69.76,40,IMA2008-055,"(Ni,Fe,Ir)"
44.14,100,69.76,80,41.19,70,Jedwabite,"Fe7(Ta,Nb)3"
44.14,100,48.16,70,46.16,50,Domeykite,Cu3As
44.14,100,41.58,50,37.77,30,Isovite,"(Cr,Fe)23C6"
44.14,100,28.87,100,25.65,100,Sulfoborite,"Mg3B2(SO4)(OH)8(OH,F)2"
44.14,100,25.65,100,28.87,100,Sulfoborite,"Mg3B2(SO4)(OH)8(OH,F)2"
44.14,100,62.44,100,41.99,100,Niggliite,PtSn
44.14,100,92.54,100,9.18,100,Freboldite,CoSe
44.01,100,38.39,40,42.15,35,Ruthenium,"(Ru,Ir,Os)"
43.98,100,33.99,90,30.10,90,Pyrrhotite,Fe(1-x)S (x=0-0.17)
43.98,100,30.10,90,33.99,90,Pyrrhotite,Fe(1-x)S (x=0-0.17)
43.96,100,29.32,70,32.90,50,Boracite,Mg3B7O13Cl
43.92,100,75.30,25,91.54,16,Diamond,C
43.92,100,53.21,75,33.93,75,Heideite,"(Fe,Cr)1+x(Ti,Fe)2S4"
43.92,100,51.28,30,75.37,20,Awaruite,Ni2Fe to Ni3Fe
43.92,100,20.35,100,29.36,100,Zemkorite,"(Na,K)2Ca(CO3)2"
43.92,100,41.19,100,38.44,100,Siderazot,Fe5N2
43.92,100,29.36,100,20.35,100,Zemkorite,"(Na,K)2Ca(CO3)2"
43.92,100,33.93,75,53.21,75,Heideite,"(Fe,Cr)1+x(Ti,Fe)2S4"
43.92,100,41.19,100,38.44,100,Siderazot,Fe5N2
43.92,100,29.36,100,35.60,100,Zemkorite,"(Na,K)2Ca(CO3)2"
43.92,100,29.36,100,20.35,100,Zemkorite,"(Na,K)2Ca(CO3)2"
43.92,100,33.93,75,53.21,75,Heideite,"(Fe,Cr)1+x(Ti,Fe)2S4"
43.89,100,38.49,91,41.21,61,Bromellite,BeO
43.89,100,33.20,70,42.53,50,Ruthenarsenite,"(Ru,Ni)As"
43.80,100,29.73,90,26.78,90,Itoite,Pb3[GeO2(OH)2](SO4)2
43.80,100,26.78,90,29.73,90,Itoite,Pb3[GeO2(OH)2](SO4)2
43.74,100,63.54,80,37.54,80,Carlsbergite,CrN
43.74,100,37.54,80,63.54,80,Carlsbergite,CrN
43.69,100,35.02,50,31.70,40,Cuprostibite,"Cu2(Sb,Tl)"
43.69,100,27.95,100,25.43,100,Banalsite,BaNa2Al4Si4O16
43.69,100,26.67,80,31.36,80,Vurroite,"Pb20Sn2(Bi,As)22S54Cl6"
43.69,100,26.51,60,45.59,40,Rickardite,Cu7Te5
43.69,100,31.36,80,33.28,80,Vurroite,"Pb20Sn2(Bi,As)22S54Cl6"
43.69,100,45.59,60,35.16,40,Rickardite,Cu7Te5
43.69,100,25.43,100,27.95,100,Banalsite,BaNa2Al4Si4O16
43.69,100,31.36,80,26.67,80,Vurroite,"Pb20Sn2(Bi,As)22S54Cl6"
43.65,100,50.88,85,50.55,83,Sugakiite,"Cu(Fe,Ni)8S8"
43.56,100,31.27,70,18.28,65,Shomiokite-(Y),Na3Y(CO3)3•3(H2O)
43.52,100,39.87,100,33.13,90,Kutinaite,Cu14Ag6As7
43.47,100,91.00,80,50.67,80,Taenite,"gamma-(Fe,Ni)"
43.47,100,50.67,80,91.00,80,Taenite,"gamma-(Fe,Ni)"
43.47,100,68.25,40,41.85,40,Danbaite,CuZn2
43.47,100,41.85,40,68.25,40,Danbaite,CuZn2
43.36,100,35.14,90,57.52,80,Corundum,Al2O3
43.30,100,50.43,46,74.13,20,Copper,Cu
43.30,100,37.28,91,62.92,57,Bunsenite,NiO
43.27,100,79.79,80,95.09,60,Zhanghengite,"(Cu,Zn,Fe,Al,Cr)"
43.25,100,45.07,70,24.64,70,Weissite,Cu1.9Te
43.25,100,33.67,60,53.21,50,Troilite,FeS
43.25,100,30.48,80,29.96,80,Montbrayite,"(Au,Sb)2Te3"
43.25,100,29.96,80,30.48,80,Montbrayite,"(Au,Sb)2Te3"
43.25,100,24.64,70,45.07,70,Weissite,Cu1.9Te
43.25,100,44.83,100,38.27,100,Calcioancylite-(Ce),CaCe(CO3)2(OH)•(H2O)
43.23,100,36.30,53,38.99,40,Zinc,Zn
43.12,100,55.11,80,14.48,80,Edgarite,FeNb2S6
43.12,100,14.48,80,34.38,80,Edgarite,FeNb2S6
43.12,100,14.48,80,55.11,80,Edgarite,FeNb2S6
43.08,100,40.68,26,37.73,24,Hexamolybdenum,"(Mo,Ru,Fe,Ir,Os)"
43.04,100,41.93,80,50.22,70,Tongxinite,Cu2Zn
43.04,100,50.22,80,49.24,70,Tongxinite,Cu2Zn
42.93,100,40.49,34,37.64,32,Rhenium,Re
42.91,100,62.30,52,78.61,12,Periclase,MgO
42.72,100,38.18,80,69.52,50,Stillwaterite,Pd8As3
42.70,40,38.70,40,20.29,40,Tischendorfite,Pd8Hg3Se9
42.70,40,20.29,40,18.40,40,Tischendorfite,Pd8Hg3Se9
42.70,40,20.29,40,38.70,40,Tischendorfite,Pd8Hg3Se9
42.65,100,25.76,100,50.55,60,Cameronite,AgCu7Te10
42.63,100,38.89,100,45.52,70,Oregonite,Ni2FeAs2
42.61,100,36.66,72,61.80,45,Osbornite,TiN
42.57,100,125.36,100,147.66,70,Skaergaardite,CuPd
42.53,100,40.41,97,47.54,44,IMA2007-036,TiFeSi2
42.40,100,78.00,80,93.33,40,Bortnikovite,Pd4Cu3Zn
42.40,100,38.44,60,66.23,40,Arsenopalladinite,"Pd8(As,Sb)3"
42.40,100,11.62,100,30.06,90,Uralborite,CaB2O2(OH)4
42.40,100,50.67,100,57.95,100,Lindsleyite,"(Ba,Sr)(Ti,Cr,Fe,Mg)21O38"
42.40,100,78.30,100,69.58,60,Osmium,"(Os,Ir)"
42.38,100,31.08,100,26.27,100,Crichtonite,"(Sr,La,Ce,Y)(Ti,Fe+++,Mn)21O38"
42.38,100,26.27,100,31.08,100,Crichtonite,"(Sr,La,Ce,Y)(Ti,Fe+++,Mn)21O38"
42.32,100,38.58,100,29.65,100,Nabiasite,"BaMn9[(V,As)O4]6(OH)2"
42.32,100,29.65,100,61.34,100,Nabiasite,"BaMn9[(V,As)O4]6(OH)2"
42.32,100,29.65,100,38.58,100,Nabiasite,"BaMn9[(V,As)O4]6(OH)2"
42.23,100,48.93,70,72.35,60,Nielsenite,PdCu3
42.23,100,72.35,70,24.32,60,Nielsenite,PdCu3
42.19,100,56.78,90,27.51,70,Sinhalite,MgAlBO4
42.19,100,40.80,90,34.47,70,Palladoarsenide,Pd2As
42.19,100,56.78,100,30.27,100,Bismutite,Bi2(CO3)O2
42.19,100,56.59,100,42.99,60,Pseudosinhalite,Mg2Al3B2O9(OH)
42.19,100,64.68,100,40.04,90,Mathiasite,"(K,Ca,Sr)(Ti,Cr,Fe,Mg)21O38"
42.11,100,90.89,80,60.50,70,Hongquiite,TiO
42.07,100,60.99,80,36.25,70,Wustite,FeO
41.99,100,39.31,55,38.10,40,Taimyrite,"(Pd,Cu,Pt)3Sn"
41.99,100,44.14,100,62.44,100,Niggliite,PtSn
41.97,100,38.17,100,48.85,80,Haxonite,"(Fe,Ni)23C6"
41.87,100,29.33,80,12.58,60,Henryite,Cu4Ag3Te4
41.78,100,35.16,80,29.45,70,Stutzite,"Ag5-xTe3,(x=0.24-0.36)"
41.78,100,22.61,75,32.17,63,Antarcticite,CaCl2•6(H2O)
41.72,100,61.07,100,27.95,100,Babefphite,"BaBe(PO4)(F,O)"
41.72,100,72.74,100,60.50,80,Khamrabaevite,"(Ti,V,Fe)C"
41.66,100,26.29,100,47.17,80,Stenonite,"(Sr,Ba,Na)2Al(CO3)F5"
41.64,100,38.17,90,127.19,80,Isomertieite,Pd11Sb2As2
41.58,100,45.42,70,46.41,70,Nickelphosphide,"(Ni,Fe)3P"
41.58,100,46.41,70,45.42,70,Nickelphosphide,"(Ni,Fe)3P"
41.54,100,33.05,100,33.82,90,Crawfordite,Na3Sr(PO4)(CO3)
41.50,100,47.36,100,26.75,100,Genthelvite,Zn4Be3(SiO4)3S
41.46,100,35.25,90,28.35,90,Ungarettiite,NaNa2(Mn++2Mn+++3)Si8O22O2
41.46,100,28.35,90,35.25,90,Ungarettiite,NaNa2(Mn++2Mn+++3)Si8O22O2
41.40,100,89.51,80,82.95,80,Tulameenite,Pt2FeCu
41.40,100,82.95,80,89.51,80,Tulameenite,Pt2FeCu
41.38,100,42.19,80,32.90,80,Ferriallanite-(Ce),"CaCe(Fe+++,Fe++,Al)3[SiO4][Si2O7]O(OH)"
41.38,100,40.41,100,33.54,100,Kotoite,Mg3B2O6
41.38,100,33.54,100,40.41,100,Kotoite,Mg3B2O6
41.38,100,32.90,80,42.19,80,Ferriallanite-(Ce),"CaCe(Fe+++,Fe++,Al)3[SiO4][Si2O7]O(OH)"
41.38,100,162.84,100,138.39,90,Sudburyite,"(Pd,Ni)Sb"
41.19,100,43.25,80,59.18,50,Cesarolite,PbH2Mn++++3O8
41.19,100,30.44,89,28.75,78,Zoltaiite,BaV++++2V+++12Si2O27
41.19,100,43.04,70,45.98,70,Schreibersite,"(Fe,Ni)3P"
41.19,100,38.44,100,43.92,100,Siderazot,Fe5N2
41.19,100,43.92,100,75.37,75,Lonsdaleite,C
41.19,100,38.44,100,43.92,100,Siderazot,Fe5N2
41.19,100,43.92,100,75.37,75,Lonsdaleite,C
41.17,100,84.65,85,47.91,75,Roaldite,"(Fe,Ni)4N"
41.17,100,47.30,70,70.06,60,Tetraferroplatinum,PtFe
41.17,100,39.47,90,77.55,60,Mertieite-II,"Pd8(Sb,As)3"
41.15,100,46.92,50,71.15,40,Ferronickelplatinum,Pt2FeNi
41.15,100,29.48,100,43.30,80,Stumpflite,"Pt(Sb,Bi)"
41.13,100,49.67,100,27.33,90,Chukhrovite-(Y),"Ca3(Y,Ce)Al2(SO4)F13•10(H2O)"
41.11,100,39.67,100,58.48,50,Stibiopalladinite,Pd5Sb2
41.07,100,52.75,90,11.28,90,Solongoite,Ca2B3O4(OH)4Cl
41.07,100,11.28,90,52.75,90,Solongoite,Ca2B3O4(OH)4Cl
41.05,100,37.52,80,74.61,30,Miessiite,Pd11Te2Se2
40.99,100,39.67,100,58.36,70,Stannopalladinite,"(Pd,Cu)3Sn2 (?)"
40.99,100,23.52,70,20.83,50,Tsnigriite,"Ag9SbTe3(S,Se)3"
40.82,100,32.58,100,43.25,90,Hsianghualite,Ca3Li2Be3(SiO4)3F2
40.80,100,31.59,92,40.04,87,Karlite,"(Mg,Al)6(BO3)3(OH,Cl)4"
40.78,100,47.57,100,19.62,100,Hongshiite,PtCu
40.66,100,47.30,50,83.48,45,Iridium,"(Ir,Os,Ru,Pt)"
40.66,100,42.21,81,39.89,46,Andreyivanovite,FeCrP
40.64,100,41.80,57,28.90,38,Yuanjiangite,AuSn
40.60,100,45.64,40,35.89,40,Palarstanide,"Pd8(Sn,As)3"
40.60,100,37.77,100,76.81,80,Goldamalgam,"(Au,Ag)Hg"
40.60,100,35.60,42,29.96,25,Kolymite,Cu7Hg6
40.60,100,33.03,100,39.31,80,Marokite,CaMn+++2O4
40.60,100,29.96,100,15.42,90,Svanbergite,SrAl3(PO4)(SO4)(OH)6
40.60,100,35.89,40,45.64,40,Palarstanide,"Pd8(Sn,As)3"
40.59,100,40.47,100,35.55,100,Belendorffite,Cu7Hg6
40.59,100,35.55,100,40.47,100,Belendorffite,Cu7Hg6
40.57,100,18.83,90,20.40,70,Bayerite,Al(OH)3
40.55,100,58.72,60,34.91,60,Manganosite,MnO
40.55,100,34.91,60,58.72,60,Manganosite,MnO
40.47,100,40.59,100,35.55,100,Belendorffite,Cu7Hg6
40.41,100,47.30,70,46.79,70,Auricupride,Cu3Au
40.41,100,39.13,100,79.31,60,Plumbopalladinite,Pd3Pb2
40.41,100,46.79,70,47.30,70,Auricupride,Cu3Au
40.41,100,41.38,100,33.54,100,Kotoite,Mg3B2O6
40.38,100,43.41,90,36.12,90,Palladobismutharsenide,"Pd2(As,Bi)"
40.38,100,36.12,90,43.41,90,Palladobismutharsenide,"Pd2(As,Bi)"
40.36,100,44.25,68,47.23,42,Barringerite,"(Fe,Ni)2P"
40.28,100,72.29,50,43.25,40,Telluropalladinite,Pd9Te4
40.28,100,43.76,80,37.02,70,Rhodarsenide,"(Rh,Pd)2As"
40.28,100,13.14,70,30.01,60,Parasibirskite,Ca2B2O5•(H2O)
40.26,100,42.61,80,43.63,70,Allabogdanite,"(Fe,Ni)2P"
40.26,100,30.06,90,28.31,80,Jordanite,"Pb14(As,Sb)6S23"
40.23,100,70.72,30,38.03,30,Titanium,Ti
40.23,100,38.03,30,70.72,30,Titanium,Ti
40.23,100,50.11,100,28.13,100,Argentite,Ag2S
40.23,100,80.27,100,150.24,90,Tetra-auricupride,AuCu
40.21,100,53.61,92,32.62,77,Pertsevite,Mg2(BO3)F
40.21,100,21.08,100,53.01,75,Gatumbaite,CaAl2(PO4)2(OH)2•(H2O)
40.17,100,110.06,90,69.05,80,Weishanite,"(Au,Ag)3Hg2"
40.13,100,127.73,56,43.98,52,Naldretteite,Pd2Sb
40.11,100,46.66,42,68.08,25,Palladium,"Pd,Pt"
40.11,100,29.04,100,42.78,80,Laitakarite,"Bi4(Se,S)3"
40.04,100,72.74,80,47.30,60,Damiaoite,PtIn2
40.04,70,50.11,70,18.70,70,Fullerite,C60
40.02,100,28.84,40,42.46,20,Poubaite,"PbBi2Se2(Te,S)2"
4-,100,39.64,100,52.65,95,Chondrodite,"(Mg,Fe++)5(SiO4)2(F,OH)2"
39.93,100,62.77,70,36.84,70,Humite,"(Mg,Fe++)7(SiO4)3(F,OH)2"
39.93,100,36.84,70,62.77,70,Humite,"(Mg,Fe++)7(SiO4)3(F,OH)2"
39.87,100,43.52,100,33.13,90,Kutinaite,Cu14Ag6As7
39.86,100,41.78,90,153.71,40,Keithconnite,Pd3-xTe(x=0.14 to 0.43)
39.86,100,29.06,100,42.82,90,Sobolevskite,PdBi
39.80,100,29.67,90,46.79,60,Ungavaite,Pd4Sb3
39.76,100,46.23,53,81.25,33,Platinum,Pt
39.76,100,29.55,90,46.94,60,Genkinite,"(Pt,Pd)4Sb3"
39.73,100,75.16,60,37.38,60,Paraschachnerite,Ag3Hg2
39.73,100,32.85,79,51.16,70,Apatite-(CaOH)-M,"(Ca,Na)5[(P,S)O4]3(OH,Cl)"
39.73,100,37.38,60,75.16,60,Paraschachnerite,Ag3Hg2
39.69,100,23.90,95,39.87,95,Hydroxylclinohumite,"Mg9(SiO4)4(OH,F)2"
39.69,100,39.87,95,23.90,95,Hydroxylclinohumite,"Mg9(SiO4)4(OH,F)2"
39.67,100,40.99,100,58.36,70,Stannopalladinite,"(Pd,Cu)3Sn2 (?)"
39.67,100,41.11,100,58.48,50,Stibiopalladinite,Pd5Sb2
39.64,100,4-,100,52.65,95,Chondrodite,"(Mg,Fe++)5(SiO4)2(F,OH)2"
39.62,100,127.19,60,37.12,50,Schachnerite,Ag1.1Hg0.9
39.51,100,41.56,90,40.38,65,Mertieite-I,"Pd11(Sb,As)4"
39.49,100,41.78,70,46.41,50,Paolovite,Pd2Sn
39.47,100,26.79,80,50.82,78,Malladrite,Na2SiF6
39.44,100,41.72,40,68.48,30,Tatyanaite,"(Pt,Pd,Cu)9Cu3Sn4"
39.31,100,68.42,40,37.12,40,Dyscrasite,Ag3Sb
39.31,100,41.58,90,77.55,80,Cabriite,Pd2SnCu
39.31,100,11.05,100,6.45,100,Connellite,Cu19Cl4(SO4)(OH)32•3(H2O)
39.31,100,6.45,100,11.05,100,Connellite,Cu19Cl4(SO4)(OH)32•3(H2O)
39.31,100,37.12,40,68.42,40,Dyscrasite,Ag3Sb
39.28,100,28.77,100,42.80,75,Tetradymite,Bi2Te2S
39.28,100,26.88,100,16.08,100,Diaboleite,Pb2CuCl2(OH)4
39.28,100,16.08,100,26.88,100,Diaboleite,Pb2CuCl2(OH)4
39.22,100,79.71,100,66.33,90,Atokite,"(Pd,Pt)3Sn"
39.22,100,79.71,100,66.33,90,Rustenburgite,"(Pt,Pd)3Sn"
39.17,100,47.36,73,43.17,69,Monipite,MoNiP
39.13,100,79.63,80,45.55,60,Yixunite,Pt3In
39.13,100,52.94,90,31.94,80,Amakinite,"(Fe++,Mg)(OH)2"
39.13,100,40.41,80,80.43,70,Tongbaite,Cr3C2
39.13,100,37.44,100,33.15,100,Bornhardtite,Co++Co+++2Se4
39.13,100,26.67,100,24.99,80,Alamosite,PbSiO3
39.13,100,33.15,100,37.44,100,Bornhardtite,Co++Co+++2Se4
39.13,100,40.41,100,79.31,60,Plumbopalladinite,Pd3Pb2
39.12,100,41.23,88,39.01,47,Florenskyite,"(Fe,Ni)TiP"
39.12,100,19.20,75,41.89,54,Demartinite,K2[SiF6]
39.05,100,33.06,80,34.44,70,Franklinfurnaceite,"Ca2(Fe+++,Al)Mn+++Mn++3Zn2Si2O10(OH)8"
38.99,100,19.24,80,52.36,60,Muskoxite,Mg7Fe+++4O13•10(H2O)
38.96,100,31.14,80,40.04,70,Hessite,Ag2Te
38.96,100,47.41,100,44.21,99,Ekaterinite,"Ca2B4O7(Cl,OH)2•2(H2O)"
38.89,100,42.63,100,45.52,70,Oregonite,Ni2FeAs2
38.87,100,79.31,90,45.04,80,Zvyagintsevite,Pd3Pb
38.87,100,25.96,70,31.82,40,Averievite,Cu5(VO4)2O2•CuCl2
38.87,100,25.28,90,18.87,90,Cookeite,LiAl4(Si3Al)O10(OH)8
38.87,100,18.87,90,25.28,90,Cookeite,LiAl4(Si3Al)O10(OH)8
38.80,100,56.06,60,70.30,17,Villiaumite,NaF
38.78,80,50.95,80,52.42,80,Felbertalite,Cu2Pb6Bi8S19
38.70,100,34.06,100,31.03,100,Makinenite,NiSe
38.70,100,31.03,100,34.06,100,Makinenite,NiSe
38.70,40,42.70,40,20.29,40,Tischendorfite,Pd8Hg3Se9
38.61,100,18.83,100,22.32,90,Donbassite,Al2[Al2.33][Si3AlO10](OH)8
38.59,100,35.16,40,32.05,30,Cadmium,Cd
38.59,100,31.43,90,28.73,90,Franciscanite-III,"Mn++6V+++++2Si2(O,OH)14"
38.59,100,28.73,90,31.43,90,Franciscanite-VIII,"Mn++3(V+++++,[ ])1-x(SiO4)(O,OH)3(x=0.5)"
38.59,100,28.73,90,31.43,90,Franciscanite-III,"Mn++6V+++++2Si2(O,OH)14"
38.59,100,31.43,90,28.73,90,Franciscanite-VIII,"Mn++3(V+++++,[ ])1-x(SiO4)(O,OH)3(x=0.5)"
38.58,100,42.32,100,29.65,100,Nabiasite,"BaMn9[(V,As)O4]6(OH)2"
38.52,100,19.24,95,52.07,50,Theophrastite,Ni(OH)2
38.44,100,74.40,80,66.65,55,Potarite,PdHg
38.44,100,69.58,35,55.66,17,Tantalum,Ta
38.44,100,41.19,100,43.92,100,Siderazot,Fe5N2
38.44,100,22.15,100,24.43,90,Beryllite,Be3SiO4(OH)2•(H2O)
38.44,100,21.34,100,27.95,80,Widenmannite,Pb2(UO2)(CO3)3
38.44,100,43.92,100,41.19,100,Siderazot,Fe5N2
38.44,100,43.92,100,57.95,100,Siderazot,Fe5N2
38.40,100,58.23,30,63.15,20,Novodneprite,AuPb3
38.40,100,63.15,30,48.62,20,Novodneprite,AuPb3
38.35,100,32.65,90,32.01,90,Jalpaite,Ag3CuS2
38.35,100,32.01,90,32.65,90,Jalpaite,Ag3CuS2
38.27,100,43.25,100,44.83,100,Calcioancylite-(Ce),CaCe(CO3)2(OH)•(H2O)
38.20,100,33.48,90,12.58,85,Tuliokite,BaNa6Th(CO3)6•6(H2O)
38.18,100,44.39,52,77.55,36,Gold,Au
38.17,100,41.97,100,48.85,80,Haxonite,"(Fe,Ni)23C6"
38.12,100,44.28,40,77.47,26,Silver,Ag
38.10,100,78.00,90,44.37,70,Aluminum,Al
38.10,100,77.55,80,44.25,60,Bogdanovite,"(Au,Te,Pb)3(Cu,Fe)"
38.10,100,68.71,70,77.10,60,Moschellandsbergite,Ag2Hg3
38.10,100,33.54,80,35.60,50,Moissanite,SiC
38.07,100,45.16,100,20.97,100,Khaidarkanite,Na0.34Cu4Al3(OH)14F3•2(H2O)
38.02,100,18.59,90,50.85,55,Brucite,Mg(OH)2
37.93,100,108.35,80,43.04,80,Eugenite,Ag9Hg2
37.93,100,77.40,80,44.14,70,Bilibinskite,Au3Cu2PbTe2
37.93,100,4-,60,35.19,40,Allargentum,Ag1-xSbx(x=0.009-0.16)
37.93,100,30.48,60,42.19,50,Hibbingite,"(Fe,Mg)2(OH)3Cl"
37.93,100,43.04,80,108.35,80,Eugenite,Ag9Hg2
37.90,100,18.35,90,33.70,80,Cumengite,Cu20Pb21Cl42(OH)40•6H2O
37.88,100,13.70,76,31.42,55,Drysdallite,"Mo(Se,S)2"
37.78,100,34.85,80,34.51,55,Safflorite,"(Co,Fe)As2"
37.77,100,32.65,80,34.47,60,Poyarkovite,Hg3ClO
37.77,100,22.61,90,23.39,80,Behoite,Be(OH)2
37.77,100,40.60,100,76.81,80,Goldamalgam,"(Au,Ag)Hg"
37.70,100,31.84,80,28.07,80,Karibibite,"Fe+++2As+++4(O,OH)9"
37.70,100,28.07,80,31.84,80,Karibibite,"Fe+++2As+++4(O,OH)9"
37.67,100,15.53,80,16.53,70,Kempite,Mn2Cl(OH)3
37.62,100,43.04,80,24.45,80,Vasilite,"(Pd,Cu)16(S,Te)7"
37.62,100,24.45,80,43.04,80,Vasilite,"(Pd,Cu)16(S,Te)7"
37.60,100,41.99,60,28.68,60,Vernadite,"(Mn++++,Fe+++,Ca,Na)(O,OH)2•n(H2O)"
37.60,100,34.20,100,51.75,90,Trogtalite,CoSe2
37.60,100,32.38,100,23.78,80,Buckhornite,AuPb2BiTe2S3
37.60,100,28.68,60,41.99,60,Vernadite,"(Mn++++,Fe+++,Ca,Na)(O,OH)2•n(H2O)"
37.59,100,31.82,30,80.19,26,Hunchunite,"(Au,Ag)2Pb"
37.55,100,28.99,100,23.39,90,Rohaite,TlCu5SbS2
37.46,100,55.51,80,28.68,80,Cryptomelane,"K(Mn++++,Mn++)8O16"
37.46,100,28.68,80,55.51,80,Cryptomelane,"K(Mn++++,Mn++)8O16"
37.44,100,46.66,100,29.55,100,Chvilevaite,"Na(Cu,Fe,Zn)2S2"
37.44,100,39.13,100,33.15,100,Bornhardtite,Co++Co+++2Se4
37.38,100,21.72,100,34.03,33,Tsumgallite,GaO(OH)
37.36,100,53.85,45,32.20,34,Lime,CaO
37.34,100,12.60,98,28.44,92,Manjiroite,"(Na,K)(Mn++++,Mn++)8O16•n(H2O)"
37.31,100,65.75,80,44.10,70,Magnesiotaaffeite-6N3S,"(Mg,Fe++,Zn)2Al6BeO12"
37.28,100,60.15,60,39.13,50,Maldonite,Au2Bi
37.28,100,41.19,85,25.58,60,Romanechite,"(Ba,H2O)2(Mn++++,Mn+++)5O10"
37.28,100,19.85,100,28.47,30,Reichenbachite,Cu++5(PO4)2(OH)4
37.28,100,60.81,100,26.51,90,Shirokshinite,K(NaMg2)Si4O10F2
37.28,100,67.31,100,8.18,100,Glucine,CaBe4(PO4)2(OH)4•0.5(H2O)
37.12,100,65.44,80,34.47,80,Zincohogbomite-2N2S,"(Zn,Fe++)(2-2x)(Ti)xAl4O8"
37.12,100,43.04,50,29.26,40,Telargpalite,"(Pd,Ag)3Te"
37.12,100,33.03,100,31.36,80,Crednerite,CuMnO2
37.12,100,31.36,90,59.60,60,Ferronigerite-2N1S,"(Zn,Mg,Fe++)(Sn,Zn)2(Al,Fe+++)12O22(OH)2"
37.12,100,34.47,80,65.44,80,Zincohogbomite-2N2S,"(Zn,Fe++)(2-2x)(Ti)xAl4O8"
37.09,100,31.29,80,65.39,50,Ferrotaaffeite-6N3S,"(Fe++,Zn,Mg)2Al6BeO12"
37.09,100,19.94,82,34.84,65,Hydroxylborite,"Mg3(BO3)(OH,F)3"
37.07,100,40.11,90,68.37,80,Atheneite,"(Pd,Hg)3As"
37.07,100,31.41,90,66.02,50,Magnesionigerite-2N1S,"(Mg,Zn,Fe+++,Al)4(Sn,Fe+++)2Al10O22(OH)2"
37.07,100,31.41,90,66.02,50,Magnesionigerite-6N6S,"(Mg,Zn,Fe+++,Al)4(Sn,Fe+++)2Al10O22(OH)2"
37.02,100,30.91,85,31.78,80,Selenojalpaite,Ag3CuSe2
37.01,100,34.43,88,65.18,56,Ferrohogbomite-2N2S,"(Fe++,Zn,Mg,Al)6Al14(Ti,Fe)2O30(OH)2"
36.96,100,65.39,80,64.88,60,Magnesiohogbomite-2N3S,"(Mg,Fe++)1.4Ti0.3Al4O8"
36.96,100,65.29,80,44.14,80,Magnesiotaaffeite-2N2S,Mg3Al8BeO16
36.96,100,65.18,50,34.47,50,Magnesiohogbomite-2N2S,"(Al,Fe++,Fe+++,Mg,Ti,Zn)11O15(OH)"
36.96,100,40.23,50,49.55,30,Palladodymite,"(Pd,Rh)2As"
36.96,100,31.03,50,62.73,40,Aguilarite,Ag4SeS
36.96,100,27.51,100,10.69,100,Calclacite,Ca[Cl2/CH3COO]•10(H2O)
36.96,100,25.66,90,32.61,85,Liebenbergite,"(Ni,Mg)2SiO4"
36.96,100,10.69,100,27.51,100,Calclacite,Ca[Cl2/CH3COO]•10(H2O)
36.96,100,34.47,50,65.18,50,Magnesiohogbomite-2N2S,"(Al,Fe++,Fe+++,Mg,Ti,Zn)11O15(OH)"
36.96,100,44.14,80,65.29,80,Magnesiotaaffeite-2N2S,Mg3Al8BeO16
36.96,100,64.88,80,45.84,60,Magnesiohogbomite-2N3S,"(Mg,Fe++)1.4Ti0.3Al4O8"
36.88,100,48.68,90,15.51,80,Dayingite,CuCoPtS4
36.88,6,14.37,10,45.69,25,Horomanite,Fe6Ni3S8
36.88,100,45.55,100,65.70,60,Surinamite,"(Mg,Fe++)3Al4BeSi3O16"
36.87,100,44.81,70,65.24,60,Spinel,MgAl2O4
36.84,100,31.24,84,65.24,43,Gahnite,ZnAl2O4
36.84,100,23.89,90,25.61,50,Holtedahlite,"Mg12(PO3OH,CO3)(PO4)5(OH,O)6"
36.80,100,64.98,60,31.14,60,Magnesiohogbomite-6N6S,"(Mg,Fe++)1.4Ti0.3Al4O8"
36.80,100,20.64,100,7.68,100,Ilmajokite,"(Na,Ce,La,Ba)2TiSi3O5(OH)10•n(H2O) (?)"
36.80,100,47.83,100,54.86,100,Malyshevite,PdCuBiS3
[...]
8.17,100,8.15,100,31.58,90,Ferrarisite,Ca5(AsO3OH)2(AsO4)2•9(H2O)
8.16,100,33.95,40,40.32,30,Tuperssuatsiaite,"Na(Fe+++,Mn)3[Si8O20](OH)2•n(H2O)"
8.16,100,40.32,40,35.74,30,Tuperssuatsiaite,"Na(Fe+++,Mn)3[Si8O20](OH)2•n(H2O)"
8.15,100,8.17,100,31.58,90,Ferrarisite,Ca5(AsO3OH)2(AsO4)2•9(H2O)
8.14,100,24.54,60,16.28,50,Leogangite,Cu10(AsO4)4(SO4)(OH)6•8(H2O)
8.14,100,34.06,60,24.54,50,Leogangite,Cu10(AsO4)4(SO4)(OH)6•8(H2O)
8.14,100,16.23,20,14.98,12,Vauxite,Fe++Al2(PO4)2(OH)2•6(H2O)
8.13,100,28.22,70,31.03,60,Smolianinovite,"(Co,Ni,Mg,Ca)3(Fe+++,Al)2(AsO4)4•11(H2O)"
8.10,100,23.58,80,11.59,50,Abelsonite,Ni++C31H32N4
8.10,100,16.25,90,24.50,80,Glaucocerinite,"(Zn,Cu)5Al3(SO4)1.5(OH)16•9(H2O)"
8.10,100,16.22,60,24.30,50,Woodwardite,Cu4Al2(SO4)(OH)12•2-4(H2O)
8.09,100,24.50,100,16.22,80,Priceite,Ca2B5O7(OH)5•H2O
8.08,100,16.22,80,22.91,70,Holdawayite,"Mn++6(CO3)2(OH)7(Cl,OH)"
8.08,100,6.79,30,32.80,25,Nafertisite,"Na3(Fe++,Fe+++)6(Ti2Si12O34)(O,OH)7•2(H2O)"
8.06,100,34.99,90,33.63,80,Osakaite,Zn4SO4(OH)6•5H2O
8.06,100,33.63,90,27.60,80,Osakaite,Zn4SO4(OH)6•5H2O
8.05,100,16.19,90,35.21,90,Shigaite,Mn++7Al4(SO4)2(OH)22•8(H2O)
8.05,100,35.21,90,16.19,90,Shigaite,Mn++7Al4(SO4)2(OH)22•8(H2O)
8.05,100,15.99,60,24.20,50,Nikischerite,NaFe++6Al3(SO4)2(OH)18(H2O)12
8.04,100,3.96,48,28.13,33,Brinrobertsite,"(Na,K,Ca)x(Al,Fe,Mg)4(Si,Al)8O20(OH)4•3.54(H2O) [x = 0.35, n = 3.54]"
8.03,100,16.53,50,24.16,40,Hydrohonessite,Ni6Fe+++2(SO4)(OH)16•7(H2O)
8.03,100,15.96,70,18.74,60,Franconite,Na2Nb4O11•9(H2O)
8.03,100,4.82,25,22.91,20,Pushcharovskite,Cu(AsO3OH)•1.5(H2O)
8.03,100,4.01,100,27.86,80,Fahleite,Zn5CaFe+++2(AsO4)6•14(H2O)
8.01,100,16.01,35,41.70,25,Hewettite,CaV6O16•9(H2O)
7.96,100,32.91,50,41.38,49,Cronusite,Ca0.2(H2O)2CrS2
7.96,100,27.08,80,23.77,80,Coconinoite,Fe+++2Al2(UO2)2(PO4)4(SO4)(OH)2•18(H2O)
7.96,100,23.77,80,27.08,80,Coconinoite,Fe+++2Al2(UO2)2(PO4)4(SO4)(OH)2•18(H2O)
7.95,100,23.77,80,27.08,80,Xiangjiangite,"(Fe+++,Al)(UO2)4(PO4)2(SO4)2(OH)•22(H2O)"
7.95,100,27.08,80,23.77,80,Xiangjiangite,"(Fe+++,Al)(UO2)4(PO4)2(SO4)2(OH)•22(H2O)"
7.94,100,26.43,90,12.99,60,Switzerite,"(Mn++,Fe++)3(PO4)2•7(H2O)"
7.94,100,15.96,24,24.01,15,Zincowoodwardite,[Zn1-xAlx(OH)2][(SO4)x/2(H2O)n]
7.94,100,27.78,100,32.52,60,Sterlinghillite,Mn++3(AsO4)2•3(H2O)
7.93,100,32.11,25,20.29,21,Nissonite,Cu2Mg2(PO4)2(OH)2•5(H2O)
7.89,100,33.41,70,15.67,60,Diaoyudaoite,NaAl11O17
7.89,100,32.74,60,15.78,60,Kittatinnyite,Ca2Mn+++2Mn++Si2O8(OH)4•9(H2O)
7.89,100,15.78,60,32.74,60,Kittatinnyite,Ca2Mn+++2Mn++Si2O8(OH)4•9(H2O)
7.85,100,29.41,60,32.01,60,Clinotobermorite,"Ca5Si6(O,OH)18•5(H2O)"
7.85,100,32.01,60,29.41,60,Clinotobermorite,"Ca5Si6(O,OH)18•5(H2O)"
7.82,100,34.92,40,25.08,30,Bostwickite,CaMn+++6Si3O16•7(H2O)
7.82,100,15.73,80,23.61,60,Mountkeithite,"(Mg,Ni)11(Fe+++,Cr)3(SO4,CO3)3.5(OH)24•11(H2O)"
7.82,100,15.62,90,28.04,80,Haapalaite,"2(Fe,Ni)S•1.6(Mg,Fe++)(OH)2"
7.82,100,26.43,100,23.02,80,Boggsite,NaCa2(Al5Si19O48)•17(H2O)
7.82,100,10.17,100,24.92,80,Amarantite,Fe+++(SO4)(OH)•3(H2O)
7.80,100,15.87,70,19.32,60,Motukoreaite,Na2Mg38Al24(CO3)13(SO4)8(OH)108•56(H2O)
7.80,100,23.90,70,15.87,60,Motukoreaite,Na2Mg38Al24(CO3)13(SO4)8(OH)108•56(H2O)
7.79,100,20.30,79,22.15,57,Gottardiite,Na3Mg3Ca5Al19Si117O272•93(H2O)
7.77,100,30.82,50,29.31,40,Defernite,"Ca6(CO3)2-x(SiO4)x(OH)7(Cl,OH)1-2x   (x=0,5)"
7.75,100,15.51,100,26.43,60,Valleriite,"4(Fe,Cu)S•3(Mg,Al)(OH)2"
7.75,100,30.39,100,33.93,100,Raite,"Na4Mn++4Si8(O,OH)24•9(H2O)"
7.74,100,13.38,73,20.53,67,Erionite-Na,"(Na2,K2,Ca)2[Al4Si14O36]•15(H2O)"
7.74,100,13.38,73,20.53,67,Erionite-K,"(K2,Ca,Na2)2[Al4Si14O36]•15(H2O)"
7.74,100,13.38,73,20.53,67,Erionite-Ca,"(Ca,K2,Na2)2[Al4Si14O36]•15(H2O)"
7.69,100,27.25,90,14.20,90,Phaunouxite,Ca3(AsO4)•11(H2O)
7.69,100,14.20,90,27.25,90,Phaunouxite,Ca3(AsO4)•11(H2O)
7.68,100,30.92,60,34.33,60,Erlianite,"(Fe++,Mg)4(Fe+++,V+++)2[Si6O15](O,OH)8"
7.68,100,20.64,100,36.80,100,Ilmajokite,"(Na,Ce,La,Ba)2TiSi3O5(OH)10•n(H2O) (?)"
7.68,100,34.33,60,30.92,60,Erlianite,"(Fe++,Mg)4(Fe+++,V+++)2[Si6O15](O,OH)8"
7.68,100,31.03,65,20.40,60,Offretite,"(K2,Ca,Mg)2.5Al5Si13O36•15(H2O)"
7.68,100,29.82,31,34.94,25,Smythite,"(Fe,Ni)9S11 or (Fe,Ni)13S16"
7.68,100,15.78,90,31.43,60,Wallkilldellite,Ca4Mn++6As+++++4O16(OH)8•18(H2O)
7.67,100,20.42,88,30.94,53,Calciopetersite,CaCu6[(PO4)2(PO3OH)(OH)6]•3(H2O)
7.67,100,31.11,100,29.11,47,Tuscanite,"K(Ca,Na)6(Si,Al)10O22(SO4,CO3,(OH)2)•(H2O)"
7.67,100,30.81,42,12.65,23,Sasaite,"(Al,Fe+++)14(PO4)11(SO4)(OH)7•84(H2O)"
7.64,100,12.76,90,29.24,75,Haineaultite,"(Na,Ca)5Ca(Ti,Nb)5(Si,S)12O34(OH,F)8•5(H2O)"
7.63,100,29.86,100,55.59,80,Ershovite,"Na4K3(Fe++,Mn++,Ti)2Si8O20(OH)4•5(H2O)"
7.63,100,55.59,100,33.04,80,Ershovite,"Na4K3(Fe++,Mn++,Ti)2Si8O20(OH)4•5(H2O)"
7.61,100,11.60,100,12.97,70,Zapatalite,Cu3Al4(PO4)3(OH)9•4(H2O)
7.61,100,17.65,30,13.36,30,Kribergite,Al5(PO4)3(SO4)(OH)4•4(H2O)
7.61,100,15.18,100,22.90,100,Kolovratite,Hydrous vanadate of Ni and Zn
7.61,100,36.91,60,20.35,50,Petersite-(Y),"(Y,Ce,Nd,Ca)Cu6(PO4)3(OH)6•3(H2O)"
7.61,100,31.25,80,15.53,60,Murmanite,"(Na,[ ])2{(Na,Ti)4[Ti2(O,H2O)4Si4O14](OH,F)2}•2H2O"
7.61,100,15.62,80,27.21,70,Wallkilldellite-(Fe),"(Ca,Cu)4Fe6[(As,Si)O4]4(OH)8•18(H2O)"
7.61,100,13.36,30,17.65,30,Kribergite,Al5(PO4)3(SO4)(OH)4•4(H2O)
7.61,100,12.80,90,29.36,80,Chivruaiite,"Ca4(Ti,Nb)5[(Si6O17)2[(OH,O)5]•13-14H2O"
7.60,100,30.59,50,27.55,45,Goudeyite,"(Al,Y)Cu6(AsO4)3(OH)6•3(H2O)"
7.60,100,15.26,27,15.05,20,Avdoninite,K2Cu5Cl8(OH)4•H2O
7.59,100,30.43,42,20.02,41,Zalesiite,"(Ca,Y)Cu6[(AsO4)2(AsO3OH)(OH)6]•3(H2O)"
7.58,100,18.23,62,13.44,62,Matioliite,NaMgAl5(PO4)4(OH)6•2H2O
7.58,100,13.44,62,18.23,62,Matioliite,NaMgAl5(PO4)4(OH)6•2H2O
7.58,100,29.76,41,33.70,22,Chlorartinite,Mg2(CO3)Cl(OH)•3(H2O)
7.55,100,36.65,40,24.99,27,Agardite-(La),"(La,Ca)Cu6(AsO4)3(OH)6•3(H2O)"
7.54,100,28.96,90,28.63,70,Burangaite,"(Na,Ca)2(Fe++,Mg)2Al10(PO4)8(OH,O)12•4(H2O)"
7.49,100,11.19,80,8.70,80,Bouazzerite,"Bi6(Mg,Co)11Fe14[AsO4]18O12(OH)4(H2O)86"
7.49,100,8.70,80,11.19,80,Bouazzerite,"Bi6(Mg,Co)11Fe14[AsO4]18O12(OH)4(H2O)86"
7.49,100,8.70,80,8.05,80,Bouazzerite,"Bi6(Mg,Co)11Fe14[AsO4]18O12(OH)4(H2O)86"
7.49,100,26.35,70,27.16,70,Giorgiosite,Mg5(CO3)4(OH)2•5(H2O)
7.49,100,27.16,70,26.35,70,Giorgiosite,Mg5(CO3)4(OH)2•5(H2O)
7.47,100,18.28,90,14.88,85,Ktenasite,"(Cu,Zn)5(SO4)2(OH)6•6(H2O)"
7.45,100,29.26,90,15.70,70,Gerstleyite,"Na2(Sb,As)8S13•2(H2O)"
7.44,100,36.49,90,30.27,80,Agardite-(Ce),"(Ce,Ca)Cu6(AsO4)3(OH)6•3(H2O)"
7.44,100,30.27,90,24.99,80,Agardite-(Ce),"(Ce,Ca)Cu6(AsO4)3(OH)6•3(H2O)"
7.42,100,28.79,80,29.15,70,Mahnertite,"(Na,Ca)Cu++3(AsO4)2Cl•5(H2O)"
7.42,100,23.33,85,23.97,70,Calcioaravaipaite,"PbCa2Al(F,OH)9"
7.42,100,3.82,100,9.71,14,Cacoxenite,"(Fe+++,Al)25(PO4)17O6(OH)12•75(H2O)"
7.39,100,21.19,70,28.62,60,Ruizite,CaMn+++Si2O6(OH)•2(H2O)
7.38,100,29.91,100,25.14,60,Tlapallite,"H6(Ca,Pb)2Cu3(SO4)(Te++++O3)4(Te++++++O6)"
7.37,100,14.80,90,23.42,80,Vanuralite,Al(UO2)2(VO4)2(OH)•11(H2O)
7.37,100,14.78,60,30.09,50,Slavkovite,Cu13(AsO4)6(AsO3OH)4•23(H2O)
7.37,100,30.09,60,25.82,50,Slavkovite,Cu13(AsO4)6(AsO3OH)4•23(H2O)
7.36,100,34.20,90,60.90,90,Aliettite,"[Mg3Si4O10(OH)2](Ca0.5,Na)0.33(Al,Mg,Fe++)2-3(Si,Al)4O10(OH)2•n(H2O)"
7.36,100,12.58,100,20.07,100,Monteregianite-(Y),"(Na,K)6(Y,Ca)2Si16O38•10(H2O)"
7.36,100,60.90,90,34.20,90,Aliettite,"[Mg3Si4O10(OH)2](Ca0.5,Na)0.33(Al,Mg,Fe++)2-3(Si,Al)4O10(OH)2•n(H2O)"
7.36,100,36.49,90,24.92,80,Mixite,BiCu6(AsO4)3(OH)6•3(H2O)
7.36,100,29.45,80,14.53,60,Zeophyllite,"Ca4Si3O8(OH,F)4•2(H2O)"
7.36,100,33.23,100,34.49,55,Eggletonite,Na2Mn8[Si11AlO29](OH)7•11(H2O)
7.35,100,24.71,80,36.04,70,Plumboagardite,"(Pb,REE,Ca)Cu6(AsO4)3(OH)6•3(H2O)"
7.32,100,14.70,40,23.64,30,Kimuraite-(Y),CaY2(CO3)4•6(H2O)
7.32,100,14.64,100,21.98,90,Arakiite,"(Zn,Mn++)(Mn++,Mg)12(Fe+++,Al)2(AsO3)(AsO4)2(OH)23"
7.30,100,58.44,90,34.60,90,Calcioferrite,"Ca4Fe++(Fe+++,Al)4(PO4)6(OH)4•12(H2O)"
7.30,100,36.49,90,19.80,80,Modderite,"(Co,Fe)As"
7.30,100,30.56,80,30.08,80,Caryochroite,"(Na,Sr)3(Fe+++,Mg)10[Ti2Si12O37](O,OH)9•8H2O"
7.30,100,29.96,80,12.71,60,Fibroferrite,Fe+++(SO4)(OH)•5(H2O)
7.30,100,8.33,60,30.81,50,Navajoite,V2O5•3(H2O)
7.30,100,34.60,90,58.44,90,Calcioferrite,"Ca4Fe++(Fe+++,Al)4(PO4)6(OH)4•12(H2O)"
7.30,100,30.08,80,30.56,80,Caryochroite,"(Na,Sr)3(Fe+++,Mg)10[Ti2Si12O37](O,OH)9•8H2O"
7.30,100,34.60,90,33.80,90,Calcioferrite,"Ca4Fe++(Fe+++,Al)4(PO4)6(OH)4•12(H2O)"
7.29,100,34.71,40,58.44,30,Lennilenapeite,"K6-7(Mg,Mn,Fe++,Fe+++,Zn)48(Si,Al)72(O,OH)216•16(H2O)"
7.28,100,32.11,30,8.85,22,Teruggite,Ca4MgAs2B12O22(OH)12•12(H2O)
7.25,100,29.16,67,36.63,31,Peretaite,CaSb+++4O4(OH)2(SO4)2•2(H2O)
7.24,100,36.80,30,26.75,30,Falcondoite,"(Ni,Mg)4Si6O15(OH)2•6(H2O)"
7.24,100,32.90,70,29.39,60,Vitimite,Ca6B14O19(SO4)(OH)14•5(H2O)
7.24,100,11.41,80,14.75,30,Ulexite,NaCaB5O6(OH)6•5(H2O)
7.24,100,26.75,30,36.80,30,Falcondoite,"(Ni,Mg)4Si6O15(OH)2•6(H2O)"
7.24,100,26.75,30,34.20,30,Falcondoite,"(Ni,Mg)4Si6O15(OH)2•6(H2O)"
7.20,100,29.26,50,3.74,20,Hydrobiotite,"[K(Mg,Fe)3(Al,Fe)Si3O10(OH,F)2]•[(Mg,Fe++,Al)3(Si,Al)4O10(OH)2•4(H2O"
7.20,100,25.43,50,29.26,20,Hydrobiotite,"[K(Mg,Fe)3(Al,Fe)Si3O10(OH,F)2]•[(Mg,Fe++,Al)3(Si,Al)4O10(OH)2•4(H2O"
7.19,100,31.47,90,34.01,88,Middendorfite,"K3Na2Mn5Si12(O,OH)36•2H2O"
7.19,100,28.99,54,27.33,18,Armbrusterite,K5Na6Mn+++Mn++14[Si9O22]4(OH)10•4H2O
7.18,100,60.46,70,28.77,50,Saponite,"(Ca/2,Na)0,3(Mg,Fe++)3(Si,Al)4O10(OH)2•4(H2O)"
7.18,100,34.74,60,20.16,35,Sepiolite,Mg4Si6O15(OH)2•6(H2O)
7.18,100,34.70,40,32.69,30,Franklinphilite,"(K,Na)4(Mn++,Mg,Zn)48(Si,Al)72(O,OH)216•6(H2O)"
7.18,100,8.84,100,9.50,80,Sherwoodite,Ca9Al2V++++4V+++++24O80•56(H2O)
7.18,100,21.34,100,35.16,100,Stilpnomelane,"K(Fe++,Mg,Fe+++)8(Si,Al)12(O,OH)27•n(H2O)"
7.17,100,27.68,86,28.70,29,Seidite-(Ce),"Na4(Ce,Sr)2{Ti(OH)2(Si8O18)}(O,OH,F)4•5(H2O)"
7.16,100,28.57,60,22.66,60,Mcnearite,NaCa5H4(AsO4)5•4(H2O)
7.16,100,25.88,20,21.66,16,Bannisterite,"KCa(Mn,Fe++,Zn,Mg)21(Si,Al)32O76(OH)16•4-12(H2O)"
7.16,100,22.66,60,28.57,60,Mcnearite,NaCa5H4(AsO4)5•4(H2O)
7.15,100,7.61,40,26.10,37,Kalifersite,"(K,Na)5Fe+++7Si20O50(OH)6•12(H2O)"
7.12,100,26.67,25,14.30,9,Ajoite,"(K,Na)3Cu20Al3Si29O76(OH)16•~8(H2O)"
7.08,100,21.36,52,33.48,13,Coalingite,Mg10Fe+++2(CO3)(OH)24•2(H2O)
7.07,100,27.54,89,28.56,54,Aravaipaite,Pb3AlF9•(H2O)
7.07,100,28.40,25,33.15,14,Ganophyllite,"(K,Na)2(Mn,Al,Mg)8(Si,Al)12O29(OH)7•8-9(H2O)"
7.07,100,8.58,45,17.04,42,Tokkoite,"K2Ca4[Si7O18(OH)](F,OH)"
7.03,100,28.22,40,25.98,15,Zakharovite,Na4Mn++5Si10O24(OH)6•6(H2O)
7.01,100,33.28,90,36.49,75,Tamaite,"(Ca,K,Ba,Na)3-4Mn24(Si,Al)40(O,OH)112•21(H2O)"
7.01,100,16.75,70,14.32,70,Hydrobasaluminite,Al4(SO4)(OH)10•12-36(H2O)
7.01,100,10.16,100,9.16,80,Voglite,Ca2Cu(UO2)(CO3)4•6(H2O)
7.01,100,14.32,70,16.75,70,Hydrobasaluminite,Al4(SO4)(OH)10•12-36(H2O)
7.01,100,36.49,90,34.47,75,Tamaite,"(Ca,K,Ba,Na)3-4Mn24(Si,Al)40(O,OH)112•21(H2O)"
6.99,100,11.31,35,16.37,35,Peisleyite,Na3Al16(SO4)2(PO4)10(OH)17•20(H2O)
6.99,100,16.37,35,11.31,35,Peisleyite,Na3Al16(SO4)2(PO4)10(OH)17•20(H2O)
6.96,100,21.14,100,31.09,70,Stratlingite,"Ca2Al[(OH)6AlSiO2-3(OH)4-3]•2,5(H2O)"
6.95,100,29.26,80,30.92,70,Tacharanite,Ca12Al2Si18O33(OH)36
6.92,100,32.32,90,10.59,70,Schoonerite,Fe++2ZnMnFe+++(PO4)3(OH)2•9(H2O)
6.92,100,28.40,50,24.50,50,Gerdtremmelite,ZnAl2(AsO4)(OH)5
6.92,100,24.50,50,28.40,50,Gerdtremmelite,ZnAl2(AsO4)(OH)5
6.90,100,18.61,34,34.06,29,Kankite,Fe+++AsO4•3.5(H2O)
6.89,100,13.72,70,34.87,60,Adamsite-(Y),NaY(CO3)2•6(H2O)
6.89,100,34.87,70,20.69,60,Adamsite-(Y),NaY(CO3)2•6(H2O)
6.89,100,11.36,80,14.00,40,Walkerite,"Ca16(Mg,Li,[ ])2[B13O17(OH)12]4Cl6•28(H2O)"
6.85,100,29.76,50,20.03,30,Walentaite,"(Ca,Mn++,Fe++)Fe+++3(AsO4)(PO4)3(PO3OH)"
6.85,100,28.14,70,11.54,50,Apachite,Cu9Si10O29•11(H2O)
6.85,100,20.45,18,19.67,7,Loughlinite,Na2Mg3Si6O16•8(H2O)
6.82,100,13.61,23,20.45,15,Gordaite,NaZn(SO4)(OH)6Cl•6(H2O)
6.81,100,61.43,90,19.58,90,Swinefordite,"(Li,Ca0.5,Na)0.72(Li,Al,Mg)2.66(Si,Al)4O10(OH,F)2•2(H2O)"
6.81,100,19.58,90,61.43,90,Swinefordite,"(Li,Ca0.5,Na)0.72(Li,Al,Mg)2.66(Si,Al)4O10(OH,F)2•2(H2O)"
6.81,100,20.54,50,28.47,50,Thomasclarkite-(Y),"(Na,Ce)(Y,REE)(HCO3)(OH)3•4(H2O)"
6.81,100,28.47,50,20.54,50,Thomasclarkite-(Y),"(Na,Ce)(Y,REE)(HCO3)(OH)3•4(H2O)"
6.79,100,29.45,45,33.77,30,Jonesite,"Ba2(K,Na)[Ti2(Si5Al)O18•n(H2O)"
6.79,100,11.15,100,15.62,100,Andersonite,Na2Ca(UO2)(CO3)3•6(H2O)
6.79,100,27.37,95,9.61,62,Niveolanite,NaBe(CO3)(OH)•2H2O
6.76,100,16.56,90,23.08,80,Torreyite,"(Mg,Mn)9Zn4(SO4)2(OH)22•8(H2O)"
6.75,100,14.44,80,9.53,80,Roggianite,Ca2[Be(OH)2Al2Si4O13]•<2•5(H2O)
6.75,100,9.53,80,14.44,80,Roggianite,Ca2[Be(OH)2Al2Si4O13]•<2•5(H2O)
6.74,100,35.49,90,33.39,40,Theresemagnanite,"(Co,Zn,Ni)6(SO4)(OH,Cl)10•8(H2O)"
6.70,100,13.45,43,30.08,37,Martinite,"(Na,[ ],Ca)12Ca4(Si,S,B)14B2O38(OH,Cl)2F2•4(H2O)"
6.65,100,28.47,90,32.22,35,Richelsdorfite,Ca2Cu5Sb(AsO4)4Cl(OH)6•6(H2O)
6.64,100,25.43,80,14.20,80,Punkaruaivite,Li{Ti2(OH)2[Si4O11(OH)]}•H2O
6.64,100,14.20,80,25.43,80,Punkaruaivite,Li{Ti2(OH)2[Si4O11(OH)]}•H2O
6.63,100,30.68,90,13.26,76,Shlykovite,KCa[Si4O9(OH)]•3H2O
6.60,100,7.99,25,15.45,23,Angastonite,CaMgAl2(PO4)2(OH)4?7H2O
6.59,100,11.08,80,15.96,60,Aldermanite,Mg5Al12(PO4)8(OH)22•32(H2O)
6.56,100,11.28,90,24.37,80,Claraite,"(Cu,Zn)3(CO3)(OH)4•4(H2O)"
6.55,100,11.36,50,8.05,50,Gilalite,Cu5Si6O17•7(H2O)
6.55,100,8.05,50,11.36,50,Gilalite,Cu5Si6O17•7(H2O)
6.54,100,28.04,80,9.61,60,Picropharmacolite,Ca4Mg(AsO3OH)2(AsO4)2•11(H2O)
6.54,100,7.18,62,14.46,55,Wardsmithite,Ca5MgB24O42•30(H2O)
6.45,100,27.72,50,8.96,40,Maricopaite,"Pb7Ca2(Si,Al)48O100•32(H2O)"
6.45,100,11.05,100,39.31,100,Connellite,Cu19Cl4(SO4)(OH)32•3(H2O)
6.40,100,19.28,90,33.54,70,Molybdophyllite,Pb9Mg9Si9O24(OH)24
6.39,100,26.19,65,31.95,62,Francoanellite,"H6(K,Na)3(Al,Fe+++)5(PO4)8•13(H2O)"
6.35,100,12.11,100,19.71,100,Yakhontovite,"(Ca,K)0.5(Cu,Fe+++,Mg)2Si4O10(OH)2•3(H2O)"
6.35,100,18.28,90,22.31,60,Chessexite,"(K,Na)4Ca2Mg3Al8(SiO4)2(SO4)10(OH)10•40(H2O)"
6.32,100,25.76,70,18.31,70,Lannonite,HCa4Mg2Al4(SO4)8F9•32(H2O)
6.32,100,18.31,70,25.76,70,Lannonite,HCa4Mg2Al4(SO4)8F9•32(H2O)
6.31,100,22.84,80,29.65,80,Guerinite,Ca5(AsO3OH)2(AsO4)2•9(H2O)
6.31,100,12.49,60,25.21,60,Corrensite,"(Ca,Na,K)(Mg,Fe,Al)9(Si,Al)8O20(OH)10•n(H2O)"
6.31,100,29.65,80,22.84,80,Guerinite,Ca5(AsO3OH)2(AsO4)2•9(H2O)
6.31,100,25.21,60,12.49,60,Corrensite,"(Ca,Na,K)(Mg,Fe,Al)9(Si,Al)8O20(OH)10•n(H2O)"
6.31,100,23.99,65,29.75,45,Tobermorite,Ca5Si6O16(OH)2•4(H2O)
6.26,100,32.05,60,27.42,57,Yukonite,Ca7Fe+++11(AsO4)9O10•24.3(H2O)
6.26,100,25.34,100,18.83,70,Borocookeite,"Li(1+3x)Al(4-x)(BSi3)O10(OH,F)8 [x = 0-0.33]"
6.22,100,11.65,100,30.27,66,Rivadavite,Na6MgB24O40•22(H2O)
6.22,100,25.58,60,25.96,60,Bariandite,Al0.6V8O20•9(H2O)
6.22,100,25.96,60,25.58,60,Bariandite,Al0.6V8O20•9(H2O)
6.18,100,29.80,100,13.85,-,Lintisite,Na3LiTi2Si4O14•2(H2O)
6.18,100,19.62,60,8.51,24,Parnauite,Cu9(AsO4)2(SO4)(OH)10•7(H2O)
6.18,100,15.64,100,23.64,100,Faujasite-Ca,"(Ca,Na2,Mg)3.5[Al7Si17O48]•32(H2O)"
6.18,100,15.64,100,23.64,100,Faujasite-Na,"(Na2,Ca,Mg)3.5[Al7Si17O48]•32(H2O)"
6.18,100,15.64,100,23.64,100,Faujasite-Mg,"(Mg,Na2,Ca)3.5[Al7Si17O48]•32(H2O)"
6.15,100,9.32,100,11.98,70,Paramendozavilite,NaAl4Fe+++7(PO4)5(P+++++Mo++++++12O40)(OH)16•56(H2O)
6.13,100,13.78,80,33.67,80,Wiserite,"Mn4B2O5(OH,Cl)4"
6.13,100,33.67,80,13.78,80,Wiserite,"Mn4B2O5(OH,Cl)4"
6.10,100,29.50,40,31.02,20,Manganokukisvumite,Na6MnTi4Si8O28•4(H2O)
6.10,100,31.02,40,13.76,20,Manganokukisvumite,Na6MnTi4Si8O28•4(H2O)
6.09,100,33.37,90,42.34,80,Phosphoinnelite,"Ba4Na3Ti3Si4O14(PO4,SO4)2(O,F)3"
6.09,100,26.00,82,28.37,35,Silhydrite,3SiO2•(H2O)
6.06,100,31.75,40,14.09,40,Bleasdaleite,"(Ca,Fe+++)2Cu5(Bi,Cu)(PO4 )4(H2O,OH,Cl)13"
6.06,100,14.09,40,31.75,40,Bleasdaleite,"(Ca,Fe+++)2Cu5(Bi,Cu)(PO4 )4(H2O,OH,Cl)13"
6.06,100,14.09,40,12.73,40,Bleasdaleite,"(Ca,Fe+++)2Cu5(Bi,Cu)(PO4 )4(H2O,OH,Cl)13"
6.05,100,13.96,70,28.35,60,Juanitaite,"(Cu,Ca,Fe)10Bi(AsO4)4(OH)11•2(H2O)"
6.04,100,11.60,100,25.50,90,Arsenuranospathite,HAl(UO2)4(AsO4)4•40(H2O)
6.03,100,21.93,80,32.89,75,Aerinite,"(Ca,Na)6FeAl(Fe++,Mg)2(Al,Mg)6[Si12O36(OH)12H][(H2O)12(CO3)]"
5.97,100,33.72,30,19.62,30,Ogdensburgite,"Ca2(Zn,Mn)Fe+++4(AsO4)4(OH)6•6(H2O)"
5.97,100,19.62,30,33.72,30,Ogdensburgite,"Ca2(Zn,Mn)Fe+++4(AsO4)4(OH)6•6(H2O)"
5.93,100,15.81,100,27.01,80,Szymanskiite,"Hg+16(Ni,Mg)6(H3O)8(CO3)12•3(H2O)"
5.93,100,11.84,50,33.13,50,Santafeite,"(Mn,Fe,Al,Mg)2(Mn++++,Mn++)2(Ca,Sr,Na)3(VO4,AsO4)4(OH)3•2(H2O)"
5.93,100,33.13,50,11.84,50,Santafeite,"(Mn,Fe,Al,Mg)2(Mn++++,Mn++)2(Ca,Sr,Na)3(VO4,AsO4)4(OH)3•2(H2O)"
5.85,100,60.90,80,33.67,40,Pimelite,Ni3Si4O10(OH)2•4(H2O)
5.85,100,33.67,80,19.45,40,Pimelite,Ni3Si4O10(OH)2•4(H2O)
5.81,100,23.33,35,30.13,35,Cowlesite,CaAl2Si3O10•5-6(H2O)
5.81,100,30.13,35,23.33,35,Cowlesite,CaAl2Si3O10•5-6(H2O)
5.80,100,11.63,100,17.98,100,Uranospathite,Al1-x[ ]x[(UO2)(PO4)]2(H2O)20+3xF1-3x
5.77,100,21.71,70,60.54,60,Zincsilite,Zn3Si4O10(OH)2•4(H2O) (?)
5.73,100,19.45,100,60.90,100,Nontronite,"Na0.3Fe+++2(Si,Al)4O10(OH)2•n(H2O)"
5.73,100,33.54,100,60.02,100,Sauconite,"Na0,3Zn3(Si,Al)4O10(OH)2•4(H2O)"
5.73,100,25.92,80,28.35,50,Magadiite,NaSi7O13(OH)3•4(H2O)
5.72,100,11.22,100,32.98,40,Brianyoungite,"Zn3(CO3,SO4)(OH)4"
5.70,100,11.63,80,23.20,80,Taranakite,K3Al5(HPO4)6(PO4)2•18(H2O)
5.70,100,23.20,80,11.63,80,Taranakite,K3Al5(HPO4)6(PO4)2•18(H2O)
5.70,100,19.58,35,60.99,15,Stevensite,"(Ca0.5,Na)0.33(Mg,Fe++)3Si4O10(OH)2•n(H2O)"
5.70,100,11.48,50,17.04,35,Earlandite,Ca3(C6H5O7)•4(H2O)
5.65,100,28.37,90,25.20,80,Gabrielite,Tl2AgCu2As3S7
5.62,100,30.77,100,27.16,75,Chiavennite,CaMnBe2Si5O13(OH)2•2(H2O)
5.55,100,12.10,70,29.04,60,Shabaite-(Nd),"Ca(Nd,Sm,Y)2(UO2)(CO3)4(OH)2•6(H2O)"
5.52,100,11.19,70,27.00,65,Imogolite,Al2SiO3(OH)4
5.52,100,19.20,100,72.29,100,Perlialite,K8Tl4Al12Si24O72•20(H2O)
5.52,100,30.77,84,14.18,48,Cryptophyllite,K2Ca[Si4O10]•5H2O
5.45,100,21.93,30,16.40,26,Surite,"(Pb,Cu)2-3(CO3)1.5-2(OH,F)0.5-1[(Al,Fe+++)2(Si,Al)4O10(OH)2]•n(H2O)"
5.41,100,5.76,70,11.57,35,Schoderite,Al2(PO4)(VO4)•8(H2O)
5.29,100,32.40,25,10.61,15,Arnhemite,"(K,Na)2Mg2(P2O7)•5(H2O)"
5.26,100,21.13,100,10.53,80,Tlalocite,Cu10Zn6(Te++++O3)(Te++++++O4)2Cl(OH)25•27(H2O)
5.16,100,7.36,80,28.77,60,Ashcroftine-(Ce),"K5Na5(Ce,Ca)12Si28O70(OH)2(CO3)8•8(H2O)"
5.16,100,7.33,80,11.61,60,Ashcroftine-(Y),"K5Na5(Y,Ca)12Si28O70(OH)2(CO3)8•8(H2O)"
5.05,100,10.07,100,27.25,25,Clairite,(NH4)2Fe+++3(SO4)4(OH)3•3(H2O)
5.02,100,26.75,100,10.22,80,Liskeardite,"(Al,Fe+++)3(AsO4)(OH)6•5(H2O)"
4.88,100,29.55,90,33.18,70,Britvinite,"Pb7+xMg4.5[(Si,Al)5O14](BO3)(BO3,AsO4)(CO3)(OH,O)7 ( x < 0.5)"
4.87,100,27.68,80,19.24,80,Zaherite,Al12(SO4)5(OH)26•20H20
4.87,100,19.24,80,27.68,80,Zaherite,Al12(SO4)5(OH)26•20H20
4.81,100,5.58,50,9.12,5,Tschortnerite,"Ca4(Ca,Sr,K,Ba)3Cu3(OH)8[Si12Al12O48]•x(H2O), x>=20"
4.80,100,9.57,100,15.90,70,Copiapite,Fe++Fe+++4(SO4)6(OH)2•20(H2O)
4.71,100,31.25,100,9.85,90,Strashimirite,Cu8(AsO4)4(OH)4•5(H2O)
4.49,100,25.97,85,8.90,50,Kenyaite,Na2Si22O41(OH)8•6(H2O)
4.20,100,34.59,90,23.27,80,Kegelite,Pb8Al4Si8O20(SO4)2(CO3)4(OH)8
4.20,100,24.99,80,10.04,80,Okenite,Ca3[Si6O15]•6(H2O)
4.20,100,10.04,80,24.99,80,Okenite,Ca3[Si6O15]•6(H2O)
4.01,100,8.03,100,27.86,80,Fahleite,Zn5CaFe+++2(AsO4)6•14(H2O)
4.01,100,7.92,70,17.79,50,Barahonaite-(Al),"(Ca,Cu,Na,Fe+++,Al )12Al2(AsO4)8(OH,Cl)x•nH2O"
4.01,100,7.89,70,32.38,30,Barahonaite-(Fe),"(Ca,Cu,Na,Fe+++,Al )12Fe+++2(AsO4)8(OH,Cl)x•nH2O"
4.01,100,28.59,100,8.03,80,Gyrolite,NaCa16Si23AlO60(OH)8•64(H2O)
3.87,100,17.69,90,32.17,70,Attikaite,Ca3Cu2Al2(AsO4)4(OH)4•2H2O
3.82,100,7.42,100,9.71,14,Cacoxenite,"(Fe+++,Al)25(PO4)17O6(OH)12•75(H2O)"
3.82,100,7.64,70,24.96,49,Rontgenite-(Ce),"Ca2(Ce,La)3(CO3)5F3"
3.67,100,14.88,97,12.55,90,Nechelyustovite,"(Ba,Na)2{(Na,Ti,Mn)4[(Ti,Nb)2O2Si4O14](OH,O,F)2}•4.5H2O"
3.66,100,11.00,100,25.88,100,Bornemanite,"BaNa3{(Na,Ti)4[(Ti,Nb)2O2Si4O14](F,OH)2}•PO4"
3.50,100,33.13,90,14.44,70,Znucalite,CaZn11(UO2)(CO3)3(OH)20•4(H2O)
3.46,100,28.13,74,10.42,72,Bykovaite,"BaNa{(Na,Ti)4[(Ti,Nb)2(OH,O)3Si4O14](OH,F)2}•3H2O"
3.15,100,29.78,80,6.26,80,Tyrolite,CaCu5(AsO4)2(CO3)(OH)4•6(H2O)
3.15,100,6.26,80,29.78,80,Tyrolite,CaCu5(AsO4)2(CO3)(OH)4•6(H2O)